C2,ROWID,USUBJID=DROP,SUBJECTN,ID,TRTGROUP=DROP,ARMA=DROP,ARMAN,VISIT,VISITNUM,TIMEPT=DROP,NTIM,TIME,TIME_FLAG,TAD,OBS,DV,STDUNIT=DROP,BLQ=DROP,MDV,TEST=DROP,CMT,EXROUTN,EXDOSE,EXDOSU=DROP,EXTDOSE,EXTDOSU=DROP,EXDURAT=DROP,EXSEQ,AMT,RATE,AMTMKG,AMTTOT,RATEMKG,RATETOT,EVID,AGE,SEX=DROP,SEXN,RACE=DROP,RACEN,ETHNIC=DROP,ETHNICN,WEIGHTBL,HEIGHTBL,BMIBL,ALB,CRT,ESP,ALT,AST
1,1,R2222-HV-1326-840001-023,840001023,9,REGN2222-3mg/kg-IM,IM1A,4,.,.,.,.,0,.,.,.,.,.,.,1,REGN2222,1,5,3.0106,mg/kg,255,mg,.,1,255,.,3.0106,255,.,.,1,50,F,0,WHITE,1,NOT-HISPANIC-OR-LATINO,0,84.7,169.7,29.4,41.53333333,66.2,0.164,24.13333333,17.46666667
2,2,R2222-HV-1326-840001-023,840001023,9,REGN2222-3mg/kg-IM,IM1A,4,4,4,Day-2,1,0.99861,.,.,11.5,2.442347035,mg/L,,0,REGN2222,2,.,.,.,.,.,.,1,.,.,.,.,.,.,0,50,F,0,WHITE,1,NOT-HISPANIC-OR-LATINO,0,84.7,169.7,29.4,41.53333333,66.2,0.164,24.13333333,17.46666667
3,3,R2222-HV-1326-840001-023,840001023,9,REGN2222-3mg/kg-IM,IM1A,4,5,5,Day-3,2,2.0035,.,.,20.9,3.039749159,mg/L,,0,REGN2222,2,.,.,.,.,.,.,1,.,.,.,.,.,.,0,50,F,0,WHITE,1,NOT-HISPANIC-OR-LATINO,0,84.7,169.7,29.4,41.53333333,66.2,0.164,24.13333333,17.46666667
4,4,R2222-HV-1326-840001-023,840001023,9,REGN2222-3mg/kg-IM,IM1A,4,6,6,Day-8,7,7.0181,.,.,33.3,3.505557397,mg/L,,0,REGN2222,2,.,.,.,.,.,.,1,.,.,.,.,.,.,0,50,F,0,WHITE,1,NOT-HISPANIC-OR-LATINO,0,84.7,169.7,29.4,41.53333333,66.2,0.164,24.13333333,17.46666667
5,5,R2222-HV-1326-840001-023,840001023,9,REGN2222-3mg/kg-IM,IM1A,4,7,7,Day-15,14,14.026,.,.,31.8,3.45946629,mg/L,,0,REGN2222,2,.,.,.,.,.,.,1,.,.,.,.,.,.,0,50,F,0,WHITE,1,NOT-HISPANIC-OR-LATINO,0,84.7,169.7,29.4,41.53333333,66.2,0.164,24.13333333,17.46666667
6,6,R2222-HV-1326-840001-023,840001023,9,REGN2222-3mg/kg-IM,IM1A,4,9,9,Day-29,28,27.993,.,.,18.3,2.90690106,mg/L,,0,REGN2222,2,.,.,.,.,.,.,1,.,.,.,.,.,.,0,50,F,0,WHITE,1,NOT-HISPANIC-OR-LATINO,0,84.7,169.7,29.4,41.53333333,66.2,0.164,24.13333333,17.46666667
7,7,R2222-HV-1326-840001-023,840001023,9,REGN2222-3mg/kg-IM,IM1A,4,.,.,.,.,28,.,.,.,.,.,.,1,REGN2222,1,5,2.8335,mg/kg,240,mg,.,2,240,.,2.8335,240,.,.,1,50,F,0,WHITE,1,NOT-HISPANIC-OR-LATINO,0,84.7,169.7,29.4,41.53333333,66.2,0.164,24.13333333,17.46666667
8,8,R2222-HV-1326-840001-023,840001023,9,REGN2222-3mg/kg-IM,IM1A,4,10,10,Day-30,29,29.041,.,.,32.9,3.493472658,mg/L,,0,REGN2222,2,.,.,.,.,.,.,2,.,.,.,.,.,.,0,50,F,0,WHITE,1,NOT-HISPANIC-OR-LATINO,0,84.7,169.7,29.4,41.53333333,66.2,0.164,24.13333333,17.46666667
9,9,R2222-HV-1326-840001-023,840001023,9,REGN2222-3mg/kg-IM,IM1A,4,11,11,Day-31,30,30.005,.,.,42.6,3.751854253,mg/L,,0,REGN2222,2,.,.,.,.,.,.,2,.,.,.,.,.,.,0,50,F,0,WHITE,1,NOT-HISPANIC-OR-LATINO,0,84.7,169.7,29.4,41.53333333,66.2,0.164,24.13333333,17.46666667
10,10,R2222-HV-1326-840001-023,840001023,9,REGN2222-3mg/kg-IM,IM1A,4,12,12,Day-36,35,35.05,.,.,46.8,3.845883203,mg/L,,0,REGN2222,2,.,.,.,.,.,.,2,.,.,.,.,.,.,0,50,F,0,WHITE,1,NOT-HISPANIC-OR-LATINO,0,84.7,169.7,29.4,41.53333333,66.2,0.164,24.13333333,17.46666667
11,11,R2222-HV-1326-840001-023,840001023,9,REGN2222-3mg/kg-IM,IM1A,4,13,13,Day-43,42,42.024,.,.,42.5,3.749504076,mg/L,,0,REGN2222,2,.,.,.,.,.,.,2,.,.,.,.,.,.,0,50,F,0,WHITE,1,NOT-HISPANIC-OR-LATINO,0,84.7,169.7,29.4,41.53333333,66.2,0.164,24.13333333,17.46666667
12,12,R2222-HV-1326-840001-023,840001023,9,REGN2222-3mg/kg-IM,IM1A,4,14,14,Day-57,56,56.021,.,.,23.6,3.161246712,mg/L,,0,REGN2222,2,.,.,.,.,.,.,2,.,.,.,.,.,.,0,50,F,0,WHITE,1,NOT-HISPANIC-OR-LATINO,0,84.7,169.7,29.4,41.53333333,66.2,0.164,24.13333333,17.46666667
13,13,R2222-HV-1326-840001-023,840001023,9,REGN2222-3mg/kg-IM,IM1A,4,15,15,Day-85,84,84.028,.,.,12.6,2.533696814,mg/L,,0,REGN2222,2,.,.,.,.,.,.,2,.,.,.,.,.,.,0,50,F,0,WHITE,1,NOT-HISPANIC-OR-LATINO,0,84.7,169.7,29.4,41.53333333,66.2,0.164,24.13333333,17.46666667
14,14,R2222-HV-1326-840001-023,840001023,9,REGN2222-3mg/kg-IM,IM1A,4,16,16,Day-113,112,112.04,.,.,6.92,1.93441577,mg/L,,0,REGN2222,2,.,.,.,.,.,.,2,.,.,.,.,.,.,0,50,F,0,WHITE,1,NOT-HISPANIC-OR-LATINO,0,84.7,169.7,29.4,41.53333333,66.2,0.164,24.13333333,17.46666667
15,15,R2222-HV-1326-840001-023,840001023,9,REGN2222-3mg/kg-IM,IM1A,4,17,17,Day-141,140,140.03,.,.,3.28,1.187843422,mg/L,,0,REGN2222,2,.,.,.,.,.,.,2,.,.,.,.,.,.,0,50,F,0,WHITE,1,NOT-HISPANIC-OR-LATINO,0,84.7,169.7,29.4,41.53333333,66.2,0.164,24.13333333,17.46666667
16,16,R2222-HV-1326-840001-024,840001024,10,REGN2222-3mg/kg-IM,IM1A,4,.,.,.,.,0,.,.,.,.,.,.,1,REGN2222,1,5,3.0201,mg/kg,270,mg,.,1,270,.,3.0201,270,.,.,1,26,F,0,OTHER,4,NOT-HISPANIC-OR-LATINO,0,89.4,172.3,30.1,43.28571429,77.42857143,0.054285714,14.85714286,15.07142857
17,17,R2222-HV-1326-840001-024,840001024,10,REGN2222-3mg/kg-IM,IM1A,4,4,4,Day-2,1,0.99931,.,.,16.1,2.778819272,mg/L,,0,REGN2222,2,.,.,.,.,.,.,1,.,.,.,.,.,.,0,26,F,0,OTHER,4,NOT-HISPANIC-OR-LATINO,0,89.4,172.3,30.1,43.28571429,77.42857143,0.054285714,14.85714286,15.07142857
18,18,R2222-HV-1326-840001-024,840001024,10,REGN2222-3mg/kg-IM,IM1A,4,5,5,Day-3,2,2.0028,.,.,27,3.295836866,mg/L,,0,REGN2222,2,.,.,.,.,.,.,1,.,.,.,.,.,.,0,26,F,0,OTHER,4,NOT-HISPANIC-OR-LATINO,0,89.4,172.3,30.1,43.28571429,77.42857143,0.054285714,14.85714286,15.07142857
19,19,R2222-HV-1326-840001-024,840001024,10,REGN2222-3mg/kg-IM,IM1A,4,6,6,Day-8,7,7.0333,.,.,42.6,3.751854253,mg/L,,0,REGN2222,2,.,.,.,.,.,.,1,.,.,.,.,.,.,0,26,F,0,OTHER,4,NOT-HISPANIC-OR-LATINO,0,89.4,172.3,30.1,43.28571429,77.42857143,0.054285714,14.85714286,15.07142857
20,20,R2222-HV-1326-840001-024,840001024,10,REGN2222-3mg/kg-IM,IM1A,4,7,7,Day-15,14,14.095,.,.,37.7,3.629660094,mg/L,,0,REGN2222,2,.,.,.,.,.,.,1,.,.,.,.,.,.,0,26,F,0,OTHER,4,NOT-HISPANIC-OR-LATINO,0,89.4,172.3,30.1,43.28571429,77.42857143,0.054285714,14.85714286,15.07142857
21,21,R2222-HV-1326-840001-024,840001024,10,REGN2222-3mg/kg-IM,IM1A,4,9,9,Day-29,28,27.995,.,.,27.5,3.314186005,mg/L,,0,REGN2222,2,.,.,.,.,.,.,1,.,.,.,.,.,.,0,26,F,0,OTHER,4,NOT-HISPANIC-OR-LATINO,0,89.4,172.3,30.1,43.28571429,77.42857143,0.054285714,14.85714286,15.07142857
22,22,R2222-HV-1326-840001-024,840001024,10,REGN2222-3mg/kg-IM,IM1A,4,.,.,.,.,28,.,.,.,.,.,.,1,REGN2222,1,5,3.0201,mg/kg,270,mg,.,2,270,.,3.0201,270,.,.,1,26,F,0,OTHER,4,NOT-HISPANIC-OR-LATINO,0,89.4,172.3,30.1,43.28571429,77.42857143,0.054285714,14.85714286,15.07142857
23,23,R2222-HV-1326-840001-024,840001024,10,REGN2222-3mg/kg-IM,IM1A,4,10,10,Day-30,29,29,.,.,50.5,3.921973336,mg/L,,0,REGN2222,2,.,.,.,.,.,.,2,.,.,.,.,.,.,0,26,F,0,OTHER,4,NOT-HISPANIC-OR-LATINO,0,89.4,172.3,30.1,43.28571429,77.42857143,0.054285714,14.85714286,15.07142857
24,24,R2222-HV-1326-840001-024,840001024,10,REGN2222-3mg/kg-IM,IM1A,4,11,11,Day-31,30,30.003,.,.,57.3,4.048300624,mg/L,,0,REGN2222,2,.,.,.,.,.,.,2,.,.,.,.,.,.,0,26,F,0,OTHER,4,NOT-HISPANIC-OR-LATINO,0,89.4,172.3,30.1,43.28571429,77.42857143,0.054285714,14.85714286,15.07142857
25,25,R2222-HV-1326-840001-024,840001024,10,REGN2222-3mg/kg-IM,IM1A,4,12,12,Day-36,35,35.05,.,.,72.2,4.279440046,mg/L,,0,REGN2222,2,.,.,.,.,.,.,2,.,.,.,.,.,.,0,26,F,0,OTHER,4,NOT-HISPANIC-OR-LATINO,0,89.4,172.3,30.1,43.28571429,77.42857143,0.054285714,14.85714286,15.07142857
26,26,R2222-HV-1326-840001-024,840001024,10,REGN2222-3mg/kg-IM,IM1A,4,13,13,Day-43,42,42.051,.,.,57.3,4.048300624,mg/L,,0,REGN2222,2,.,.,.,.,.,.,2,.,.,.,.,.,.,0,26,F,0,OTHER,4,NOT-HISPANIC-OR-LATINO,0,89.4,172.3,30.1,43.28571429,77.42857143,0.054285714,14.85714286,15.07142857
27,27,R2222-HV-1326-840001-024,840001024,10,REGN2222-3mg/kg-IM,IM1A,4,14,14,Day-57,56,56.067,.,.,30.5,3.417726684,mg/L,,0,REGN2222,2,.,.,.,.,.,.,2,.,.,.,.,.,.,0,26,F,0,OTHER,4,NOT-HISPANIC-OR-LATINO,0,89.4,172.3,30.1,43.28571429,77.42857143,0.054285714,14.85714286,15.07142857
28,28,R2222-HV-1326-840001-024,840001024,10,REGN2222-3mg/kg-IM,IM1A,4,15,15,Day-85,84,84.062,.,.,21.1,3.04927304,mg/L,,0,REGN2222,2,.,.,.,.,.,.,2,.,.,.,.,.,.,0,26,F,0,OTHER,4,NOT-HISPANIC-OR-LATINO,0,89.4,172.3,30.1,43.28571429,77.42857143,0.054285714,14.85714286,15.07142857
29,29,R2222-HV-1326-840001-024,840001024,10,REGN2222-3mg/kg-IM,IM1A,4,16,16,Day-113,112,112.07,.,.,12.5,2.525728644,mg/L,,0,REGN2222,2,.,.,.,.,.,.,2,.,.,.,.,.,.,0,26,F,0,OTHER,4,NOT-HISPANIC-OR-LATINO,0,89.4,172.3,30.1,43.28571429,77.42857143,0.054285714,14.85714286,15.07142857
30,30,R2222-HV-1326-840001-024,840001024,10,REGN2222-3mg/kg-IM,IM1A,4,17,17,Day-141,140,140.09,.,.,7.36,1.996059933,mg/L,,0,REGN2222,2,.,.,.,.,.,.,2,.,.,.,.,.,.,0,26,F,0,OTHER,4,NOT-HISPANIC-OR-LATINO,0,89.4,172.3,30.1,43.28571429,77.42857143,0.054285714,14.85714286,15.07142857
31,31,R2222-HV-1326-840001-028,840001028,12,REGN2222-3mg/kg-IM,IM1A,4,.,.,.,.,0,.,.,.,.,.,.,1,REGN2222,1,5,3.13,mg/kg,195,mg,.,1,195,.,3.13,195,.,.,1,57,F,0,WHITE,1,NOT-HISPANIC-OR-LATINO,0,62.3,168.9,21.8,41.71428571,69.71428571,0.096428571,18.28571429,17.21428571
32,32,R2222-HV-1326-840001-028,840001028,12,REGN2222-3mg/kg-IM,IM1A,4,4,4,Day-2,1,1,.,.,16,2.772588722,mg/L,,0,REGN2222,2,.,.,.,.,.,.,1,.,.,.,.,.,.,0,57,F,0,WHITE,1,NOT-HISPANIC-OR-LATINO,0,62.3,168.9,21.8,41.71428571,69.71428571,0.096428571,18.28571429,17.21428571
33,33,R2222-HV-1326-840001-028,840001028,12,REGN2222-3mg/kg-IM,IM1A,4,5,5,Day-3,2,2.0042,.,.,23.7,3.165475048,mg/L,,0,REGN2222,2,.,.,.,.,.,.,1,.,.,.,.,.,.,0,57,F,0,WHITE,1,NOT-HISPANIC-OR-LATINO,0,62.3,168.9,21.8,41.71428571,69.71428571,0.096428571,18.28571429,17.21428571
34,34,R2222-HV-1326-840001-028,840001028,12,REGN2222-3mg/kg-IM,IM1A,4,6,6,Day-8,7,7.0062,.,.,39.4,3.673765816,mg/L,,0,REGN2222,2,.,.,.,.,.,.,1,.,.,.,.,.,.,0,57,F,0,WHITE,1,NOT-HISPANIC-OR-LATINO,0,62.3,168.9,21.8,41.71428571,69.71428571,0.096428571,18.28571429,17.21428571
35,35,R2222-HV-1326-840001-028,840001028,12,REGN2222-3mg/kg-IM,IM1A,4,7,7,Day-15,14,14.024,.,.,36.7,3.602776755,mg/L,,0,REGN2222,2,.,.,.,.,.,.,1,.,.,.,.,.,.,0,57,F,0,WHITE,1,NOT-HISPANIC-OR-LATINO,0,62.3,168.9,21.8,41.71428571,69.71428571,0.096428571,18.28571429,17.21428571
36,36,R2222-HV-1326-840001-028,840001028,12,REGN2222-3mg/kg-IM,IM1A,4,9,9,Day-29,28,28.038,.,.,28.6,3.353406718,mg/L,,0,REGN2222,2,.,.,.,.,.,.,1,.,.,.,.,.,.,0,57,F,0,WHITE,1,NOT-HISPANIC-OR-LATINO,0,62.3,168.9,21.8,41.71428571,69.71428571,0.096428571,18.28571429,17.21428571
37,37,R2222-HV-1326-840001-028,840001028,12,REGN2222-3mg/kg-IM,IM1A,4,.,.,.,.,28.042,.,.,.,.,.,.,1,REGN2222,1,5,3.13,mg/kg,195,mg,.,2,195,.,3.13,195,.,.,1,57,F,0,WHITE,1,NOT-HISPANIC-OR-LATINO,0,62.3,168.9,21.8,41.71428571,69.71428571,0.096428571,18.28571429,17.21428571
38,38,R2222-HV-1326-840001-028,840001028,12,REGN2222-3mg/kg-IM,IM1A,4,10,10,Day-30,29,29.049,.,.,45.4,3.815512105,mg/L,,0,REGN2222,2,.,.,.,.,.,.,2,.,.,.,.,.,.,0,57,F,0,WHITE,1,NOT-HISPANIC-OR-LATINO,0,62.3,168.9,21.8,41.71428571,69.71428571,0.096428571,18.28571429,17.21428571
39,39,R2222-HV-1326-840001-028,840001028,12,REGN2222-3mg/kg-IM,IM1A,4,11,11,Day-31,30,30.054,.,.,56.7,4.037774211,mg/L,,0,REGN2222,2,.,.,.,.,.,.,2,.,.,.,.,.,.,0,57,F,0,WHITE,1,NOT-HISPANIC-OR-LATINO,0,62.3,168.9,21.8,41.71428571,69.71428571,0.096428571,18.28571429,17.21428571
40,40,R2222-HV-1326-840001-028,840001028,12,REGN2222-3mg/kg-IM,IM1A,4,12,12,Day-36,35,35.001,.,.,67.1,4.206184044,mg/L,,0,REGN2222,2,.,.,.,.,.,.,2,.,.,.,.,.,.,0,57,F,0,WHITE,1,NOT-HISPANIC-OR-LATINO,0,62.3,168.9,21.8,41.71428571,69.71428571,0.096428571,18.28571429,17.21428571
41,41,R2222-HV-1326-840001-028,840001028,12,REGN2222-3mg/kg-IM,IM1A,4,13,13,Day-43,42,41.998,.,.,63.3,4.147885329,mg/L,,0,REGN2222,2,.,.,.,.,.,.,2,.,.,.,.,.,.,0,57,F,0,WHITE,1,NOT-HISPANIC-OR-LATINO,0,62.3,168.9,21.8,41.71428571,69.71428571,0.096428571,18.28571429,17.21428571
42,42,R2222-HV-1326-840001-028,840001028,12,REGN2222-3mg/kg-IM,IM1A,4,14,14,Day-57,56,56,.,.,49.1,3.893859035,mg/L,,0,REGN2222,2,.,.,.,.,.,.,2,.,.,.,.,.,.,0,57,F,0,WHITE,1,NOT-HISPANIC-OR-LATINO,0,62.3,168.9,21.8,41.71428571,69.71428571,0.096428571,18.28571429,17.21428571
43,43,R2222-HV-1326-840001-028,840001028,12,REGN2222-3mg/kg-IM,IM1A,4,15,15,Day-85,84,84.019,.,.,26.2,3.265759411,mg/L,,0,REGN2222,2,.,.,.,.,.,.,2,.,.,.,.,.,.,0,57,F,0,WHITE,1,NOT-HISPANIC-OR-LATINO,0,62.3,168.9,21.8,41.71428571,69.71428571,0.096428571,18.28571429,17.21428571
44,44,R2222-HV-1326-840001-028,840001028,12,REGN2222-3mg/kg-IM,IM1A,4,16,16,Day-113,112,112,.,.,19.3,2.960105096,mg/L,,0,REGN2222,2,.,.,.,.,.,.,2,.,.,.,.,.,.,0,57,F,0,WHITE,1,NOT-HISPANIC-OR-LATINO,0,62.3,168.9,21.8,41.71428571,69.71428571,0.096428571,18.28571429,17.21428571
45,45,R2222-HV-1326-840001-028,840001028,12,REGN2222-3mg/kg-IM,IM1A,4,17,17,Day-141,140,140.02,.,.,10.3,2.332143895,mg/L,,0,REGN2222,2,.,.,.,.,.,.,2,.,.,.,.,.,.,0,57,F,0,WHITE,1,NOT-HISPANIC-OR-LATINO,0,62.3,168.9,21.8,41.71428571,69.71428571,0.096428571,18.28571429,17.21428571
46,46,R2222-HV-1326-840001-029,840001029,13,REGN2222-3mg/kg-IM,IM1A,4,.,.,.,.,0,.,.,.,.,.,.,1,REGN2222,1,5,2.967,mg/kg,135,mg,.,1,135,.,2.967,135,.,.,1,47,F,0,WHITE,1,NOT-HISPANIC-OR-LATINO,0,45.5,151.3,19.9,44.64285714,65.85714286,0.105714286,12.78571429,16.64285714
47,47,R2222-HV-1326-840001-029,840001029,13,REGN2222-3mg/kg-IM,IM1A,4,4,4,Day-2,1,0.99931,.,.,12,2.48490665,mg/L,,0,REGN2222,2,.,.,.,.,.,.,1,.,.,.,.,.,.,0,47,F,0,WHITE,1,NOT-HISPANIC-OR-LATINO,0,45.5,151.3,19.9,44.64285714,65.85714286,0.105714286,12.78571429,16.64285714
48,48,R2222-HV-1326-840001-029,840001029,13,REGN2222-3mg/kg-IM,IM1A,4,5,5,Day-3,2,2.0049,.,.,19.5,2.970414466,mg/L,,0,REGN2222,2,.,.,.,.,.,.,1,.,.,.,.,.,.,0,47,F,0,WHITE,1,NOT-HISPANIC-OR-LATINO,0,45.5,151.3,19.9,44.64285714,65.85714286,0.105714286,12.78571429,16.64285714
49,49,R2222-HV-1326-840001-029,840001029,13,REGN2222-3mg/kg-IM,IM1A,4,6,6,Day-8,7,7.0014,.,.,22.7,3.122364924,mg/L,,0,REGN2222,2,.,.,.,.,.,.,1,.,.,.,.,.,.,0,47,F,0,WHITE,1,NOT-HISPANIC-OR-LATINO,0,45.5,151.3,19.9,44.64285714,65.85714286,0.105714286,12.78571429,16.64285714
50,50,R2222-HV-1326-840001-029,840001029,13,REGN2222-3mg/kg-IM,IM1A,4,7,7,Day-15,14,14.037,.,.,18.4,2.912350665,mg/L,,0,REGN2222,2,.,.,.,.,.,.,1,.,.,.,.,.,.,0,47,F,0,WHITE,1,NOT-HISPANIC-OR-LATINO,0,45.5,151.3,19.9,44.64285714,65.85714286,0.105714286,12.78571429,16.64285714
51,51,R2222-HV-1326-840001-029,840001029,13,REGN2222-3mg/kg-IM,IM1A,4,9,9,Day-29,28,28.039,.,.,12.8,2.549445171,mg/L,,0,REGN2222,2,.,.,.,.,.,.,1,.,.,.,.,.,.,0,47,F,0,WHITE,1,NOT-HISPANIC-OR-LATINO,0,45.5,151.3,19.9,44.64285714,65.85714286,0.105714286,12.78571429,16.64285714
52,52,R2222-HV-1326-840001-029,840001029,13,REGN2222-3mg/kg-IM,IM1A,4,.,.,.,.,28.042,.,.,.,.,.,.,1,REGN2222,1,5,2.967,mg/kg,135,mg,.,2,135,.,2.967,135,.,.,1,47,F,0,WHITE,1,NOT-HISPANIC-OR-LATINO,0,45.5,151.3,19.9,44.64285714,65.85714286,0.105714286,12.78571429,16.64285714
53,53,R2222-HV-1326-840001-029,840001029,13,REGN2222-3mg/kg-IM,IM1A,4,10,10,Day-30,29,29.042,.,.,23.4,3.152736022,mg/L,,0,REGN2222,2,.,.,.,.,.,.,2,.,.,.,.,.,.,0,47,F,0,WHITE,1,NOT-HISPANIC-OR-LATINO,0,45.5,151.3,19.9,44.64285714,65.85714286,0.105714286,12.78571429,16.64285714
54,54,R2222-HV-1326-840001-029,840001029,13,REGN2222-3mg/kg-IM,IM1A,4,11,11,Day-31,30,30.049,.,.,31.1,3.437207819,mg/L,,0,REGN2222,2,.,.,.,.,.,.,2,.,.,.,.,.,.,0,47,F,0,WHITE,1,NOT-HISPANIC-OR-LATINO,0,45.5,151.3,19.9,44.64285714,65.85714286,0.105714286,12.78571429,16.64285714
55,55,R2222-HV-1326-840001-029,840001029,13,REGN2222-3mg/kg-IM,IM1A,4,12,12,Day-36,35,35.012,.,.,51.6,3.943521672,mg/L,,0,REGN2222,2,.,.,.,.,.,.,2,.,.,.,.,.,.,0,47,F,0,WHITE,1,NOT-HISPANIC-OR-LATINO,0,45.5,151.3,19.9,44.64285714,65.85714286,0.105714286,12.78571429,16.64285714
56,56,R2222-HV-1326-840001-029,840001029,13,REGN2222-3mg/kg-IM,IM1A,4,13,13,Day-43,42,42.019,.,.,37.5,3.624340933,mg/L,,0,REGN2222,2,.,.,.,.,.,.,2,.,.,.,.,.,.,0,47,F,0,WHITE,1,NOT-HISPANIC-OR-LATINO,0,45.5,151.3,19.9,44.64285714,65.85714286,0.105714286,12.78571429,16.64285714
57,57,R2222-HV-1326-840001-029,840001029,13,REGN2222-3mg/kg-IM,IM1A,4,14,14,Day-57,56,56.032,.,.,26.2,3.265759411,mg/L,,0,REGN2222,2,.,.,.,.,.,.,2,.,.,.,.,.,.,0,47,F,0,WHITE,1,NOT-HISPANIC-OR-LATINO,0,45.5,151.3,19.9,44.64285714,65.85714286,0.105714286,12.78571429,16.64285714
58,58,R2222-HV-1326-840001-029,840001029,13,REGN2222-3mg/kg-IM,IM1A,4,15,15,Day-85,84,85.031,.,.,15.2,2.721295428,mg/L,,0,REGN2222,2,.,.,.,.,.,.,2,.,.,.,.,.,.,0,47,F,0,WHITE,1,NOT-HISPANIC-OR-LATINO,0,45.5,151.3,19.9,44.64285714,65.85714286,0.105714286,12.78571429,16.64285714
59,59,R2222-HV-1326-840001-029,840001029,13,REGN2222-3mg/kg-IM,IM1A,4,16,16,Day-113,112,112.05,.,.,11.5,2.442347035,mg/L,,0,REGN2222,2,.,.,.,.,.,.,2,.,.,.,.,.,.,0,47,F,0,WHITE,1,NOT-HISPANIC-OR-LATINO,0,45.5,151.3,19.9,44.64285714,65.85714286,0.105714286,12.78571429,16.64285714
60,60,R2222-HV-1326-840001-029,840001029,13,REGN2222-3mg/kg-IM,IM1A,4,17,17,Day-141,140,140.02,.,.,5.01,1.611435915,mg/L,,0,REGN2222,2,.,.,.,.,.,.,2,.,.,.,.,.,.,0,47,F,0,WHITE,1,NOT-HISPANIC-OR-LATINO,0,45.5,151.3,19.9,44.64285714,65.85714286,0.105714286,12.78571429,16.64285714
61,61,R2222-HV-1326-840001-030,840001030,14,REGN2222-3mg/kg-IM,IM1A,4,.,.,.,.,0,.,.,.,.,.,.,1,REGN2222,1,5,3.0928,mg/kg,270,mg,.,1,270,.,3.0928,270,.,.,1,48,F,0,BLACK,2,NOT-HISPANIC-OR-LATINO,0,87.3,167.3,31.2,43,63.92857143,0.15,19.21428571,17.64285714
62,62,R2222-HV-1326-840001-030,840001030,14,REGN2222-3mg/kg-IM,IM1A,4,4,4,Day-2,1,1.0049,.,.,14.9,2.701361213,mg/L,,0,REGN2222,2,.,.,.,.,.,.,1,.,.,.,.,.,.,0,48,F,0,BLACK,2,NOT-HISPANIC-OR-LATINO,0,87.3,167.3,31.2,43,63.92857143,0.15,19.21428571,17.64285714
63,63,R2222-HV-1326-840001-030,840001030,14,REGN2222-3mg/kg-IM,IM1A,4,5,5,Day-3,2,2.0056,.,.,31.5,3.449987546,mg/L,,0,REGN2222,2,.,.,.,.,.,.,1,.,.,.,.,.,.,0,48,F,0,BLACK,2,NOT-HISPANIC-OR-LATINO,0,87.3,167.3,31.2,43,63.92857143,0.15,19.21428571,17.64285714
64,64,R2222-HV-1326-840001-030,840001030,14,REGN2222-3mg/kg-IM,IM1A,4,6,6,Day-8,7,7.0035,.,.,44.7,3.799973502,mg/L,,0,REGN2222,2,.,.,.,.,.,.,1,.,.,.,.,.,.,0,48,F,0,BLACK,2,NOT-HISPANIC-OR-LATINO,0,87.3,167.3,31.2,43,63.92857143,0.15,19.21428571,17.64285714
65,65,R2222-HV-1326-840001-030,840001030,14,REGN2222-3mg/kg-IM,IM1A,4,7,7,Day-15,14,14.01,.,.,37.9,3.634951112,mg/L,,0,REGN2222,2,.,.,.,.,.,.,1,.,.,.,.,.,.,0,48,F,0,BLACK,2,NOT-HISPANIC-OR-LATINO,0,87.3,167.3,31.2,43,63.92857143,0.15,19.21428571,17.64285714
66,66,R2222-HV-1326-840001-030,840001030,14,REGN2222-3mg/kg-IM,IM1A,4,9,9,Day-29,28,28.042,.,.,28.7,3.356897123,mg/L,,0,REGN2222,2,.,.,.,.,.,.,1,.,.,.,.,.,.,0,48,F,0,BLACK,2,NOT-HISPANIC-OR-LATINO,0,87.3,167.3,31.2,43,63.92857143,0.15,19.21428571,17.64285714
67,67,R2222-HV-1326-840001-030,840001030,14,REGN2222-3mg/kg-IM,IM1A,4,.,.,.,.,28.044,.,.,.,.,.,.,1,REGN2222,1,5,3.0928,mg/kg,270,mg,.,2,270,.,3.0928,270,.,.,1,48,F,0,BLACK,2,NOT-HISPANIC-OR-LATINO,0,87.3,167.3,31.2,43,63.92857143,0.15,19.21428571,17.64285714
68,68,R2222-HV-1326-840001-030,840001030,14,REGN2222-3mg/kg-IM,IM1A,4,10,10,Day-30,29,29.046,.,.,47,3.850147602,mg/L,,0,REGN2222,2,.,.,.,.,.,.,2,.,.,.,.,.,.,0,48,F,0,BLACK,2,NOT-HISPANIC-OR-LATINO,0,87.3,167.3,31.2,43,63.92857143,0.15,19.21428571,17.64285714
69,69,R2222-HV-1326-840001-030,840001030,14,REGN2222-3mg/kg-IM,IM1A,4,11,11,Day-31,30,30.048,.,.,54.6,4.000033883,mg/L,,0,REGN2222,2,.,.,.,.,.,.,2,.,.,.,.,.,.,0,48,F,0,BLACK,2,NOT-HISPANIC-OR-LATINO,0,87.3,167.3,31.2,43,63.92857143,0.15,19.21428571,17.64285714
70,70,R2222-HV-1326-840001-030,840001030,14,REGN2222-3mg/kg-IM,IM1A,4,12,12,Day-36,35,34.999,.,.,48.4,3.879499814,mg/L,,0,REGN2222,2,.,.,.,.,.,.,2,.,.,.,.,.,.,0,48,F,0,BLACK,2,NOT-HISPANIC-OR-LATINO,0,87.3,167.3,31.2,43,63.92857143,0.15,19.21428571,17.64285714
71,71,R2222-HV-1326-840001-030,840001030,14,REGN2222-3mg/kg-IM,IM1A,4,13,13,Day-43,42,42,.,.,48.4,3.879499814,mg/L,,0,REGN2222,2,.,.,.,.,.,.,2,.,.,.,.,.,.,0,48,F,0,BLACK,2,NOT-HISPANIC-OR-LATINO,0,87.3,167.3,31.2,43,63.92857143,0.15,19.21428571,17.64285714
72,72,R2222-HV-1326-840001-030,840001030,14,REGN2222-3mg/kg-IM,IM1A,4,14,14,Day-57,56,55.993,.,.,39.9,3.686376324,mg/L,,0,REGN2222,2,.,.,.,.,.,.,2,.,.,.,.,.,.,0,48,F,0,BLACK,2,NOT-HISPANIC-OR-LATINO,0,87.3,167.3,31.2,43,63.92857143,0.15,19.21428571,17.64285714
73,73,R2222-HV-1326-840001-030,840001030,14,REGN2222-3mg/kg-IM,IM1A,4,15,15,Day-85,84,83.988,.,.,21.4,3.063390922,mg/L,,0,REGN2222,2,.,.,.,.,.,.,2,.,.,.,.,.,.,0,48,F,0,BLACK,2,NOT-HISPANIC-OR-LATINO,0,87.3,167.3,31.2,43,63.92857143,0.15,19.21428571,17.64285714
74,74,R2222-HV-1326-840001-030,840001030,14,REGN2222-3mg/kg-IM,IM1A,4,16,16,Day-113,112,112,.,.,14.3,2.660259537,mg/L,,0,REGN2222,2,.,.,.,.,.,.,2,.,.,.,.,.,.,0,48,F,0,BLACK,2,NOT-HISPANIC-OR-LATINO,0,87.3,167.3,31.2,43,63.92857143,0.15,19.21428571,17.64285714
75,75,R2222-HV-1326-840001-030,840001030,14,REGN2222-3mg/kg-IM,IM1A,4,17,17,Day-141,140,140,.,.,6.72,1.905088155,mg/L,,0,REGN2222,2,.,.,.,.,.,.,2,.,.,.,.,.,.,0,48,F,0,BLACK,2,NOT-HISPANIC-OR-LATINO,0,87.3,167.3,31.2,43,63.92857143,0.15,19.21428571,17.64285714
76,76,R2222-HV-1326-840001-031,840001031,15,REGN2222-3mg/kg-IM,IM1A,4,.,.,.,.,0,.,.,.,.,.,.,1,REGN2222,1,5,3.0696,mg/kg,225,mg,.,1,225,.,3.0696,225,.,.,1,47,F,0,WHITE,1,NOT-HISPANIC-OR-LATINO,0,73.3,166.6,26.4,41.78571429,60.71428571,0.108571429,11.5,12.64285714
77,77,R2222-HV-1326-840001-031,840001031,15,REGN2222-3mg/kg-IM,IM1A,4,4,4,Day-2,1,1.0042,.,.,13.6,2.610069793,mg/L,,0,REGN2222,2,.,.,.,.,.,.,1,.,.,.,.,.,.,0,47,F,0,WHITE,1,NOT-HISPANIC-OR-LATINO,0,73.3,166.6,26.4,41.78571429,60.71428571,0.108571429,11.5,12.64285714
78,78,R2222-HV-1326-840001-031,840001031,15,REGN2222-3mg/kg-IM,IM1A,4,5,5,Day-3,2,2.0042,.,.,24.8,3.210843653,mg/L,,0,REGN2222,2,.,.,.,.,.,.,1,.,.,.,.,.,.,0,47,F,0,WHITE,1,NOT-HISPANIC-OR-LATINO,0,73.3,166.6,26.4,41.78571429,60.71428571,0.108571429,11.5,12.64285714
79,79,R2222-HV-1326-840001-031,840001031,15,REGN2222-3mg/kg-IM,IM1A,4,6,6,Day-8,7,7.0097,.,.,29.8,3.394508394,mg/L,,0,REGN2222,2,.,.,.,.,.,.,1,.,.,.,.,.,.,0,47,F,0,WHITE,1,NOT-HISPANIC-OR-LATINO,0,73.3,166.6,26.4,41.78571429,60.71428571,0.108571429,11.5,12.64285714
80,80,R2222-HV-1326-840001-031,840001031,15,REGN2222-3mg/kg-IM,IM1A,4,7,7,Day-15,14,14.039,.,.,26.4,3.27336401,mg/L,,0,REGN2222,2,.,.,.,.,.,.,1,.,.,.,.,.,.,0,47,F,0,WHITE,1,NOT-HISPANIC-OR-LATINO,0,73.3,166.6,26.4,41.78571429,60.71428571,0.108571429,11.5,12.64285714
81,81,R2222-HV-1326-840001-031,840001031,15,REGN2222-3mg/kg-IM,IM1A,4,9,9,Day-29,28,28.039,.,.,21.4,3.063390922,mg/L,,0,REGN2222,2,.,.,.,.,.,.,1,.,.,.,.,.,.,0,47,F,0,WHITE,1,NOT-HISPANIC-OR-LATINO,0,73.3,166.6,26.4,41.78571429,60.71428571,0.108571429,11.5,12.64285714
82,82,R2222-HV-1326-840001-031,840001031,15,REGN2222-3mg/kg-IM,IM1A,4,.,.,.,.,28.042,.,.,.,.,.,.,1,REGN2222,1,5,3.0696,mg/kg,225,mg,.,2,225,.,3.0696,225,.,.,1,47,F,0,WHITE,1,NOT-HISPANIC-OR-LATINO,0,73.3,166.6,26.4,41.78571429,60.71428571,0.108571429,11.5,12.64285714
83,83,R2222-HV-1326-840001-031,840001031,15,REGN2222-3mg/kg-IM,IM1A,4,10,10,Day-30,29,29.045,.,.,43.7,3.777348102,mg/L,,0,REGN2222,2,.,.,.,.,.,.,2,.,.,.,.,.,.,0,47,F,0,WHITE,1,NOT-HISPANIC-OR-LATINO,0,73.3,166.6,26.4,41.78571429,60.71428571,0.108571429,11.5,12.64285714
84,84,R2222-HV-1326-840001-031,840001031,15,REGN2222-3mg/kg-IM,IM1A,4,11,11,Day-31,30,30.044,.,.,55.6,4.018183201,mg/L,,0,REGN2222,2,.,.,.,.,.,.,2,.,.,.,.,.,.,0,47,F,0,WHITE,1,NOT-HISPANIC-OR-LATINO,0,73.3,166.6,26.4,41.78571429,60.71428571,0.108571429,11.5,12.64285714
85,85,R2222-HV-1326-840001-031,840001031,15,REGN2222-3mg/kg-IM,IM1A,4,12,12,Day-36,35,35.022,.,.,43.6,3.77505715,mg/L,,0,REGN2222,2,.,.,.,.,.,.,2,.,.,.,.,.,.,0,47,F,0,WHITE,1,NOT-HISPANIC-OR-LATINO,0,73.3,166.6,26.4,41.78571429,60.71428571,0.108571429,11.5,12.64285714
86,86,R2222-HV-1326-840001-031,840001031,15,REGN2222-3mg/kg-IM,IM1A,4,13,13,Day-43,42,42.015,.,.,40,3.688879454,mg/L,,0,REGN2222,2,.,.,.,.,.,.,2,.,.,.,.,.,.,0,47,F,0,WHITE,1,NOT-HISPANIC-OR-LATINO,0,73.3,166.6,26.4,41.78571429,60.71428571,0.108571429,11.5,12.64285714
87,87,R2222-HV-1326-840001-031,840001031,15,REGN2222-3mg/kg-IM,IM1A,4,14,14,Day-57,56,56.004,.,.,34.3,3.535145354,mg/L,,0,REGN2222,2,.,.,.,.,.,.,2,.,.,.,.,.,.,0,47,F,0,WHITE,1,NOT-HISPANIC-OR-LATINO,0,73.3,166.6,26.4,41.78571429,60.71428571,0.108571429,11.5,12.64285714
88,88,R2222-HV-1326-840001-031,840001031,15,REGN2222-3mg/kg-IM,IM1A,4,15,15,Day-85,84,84.001,.,.,18.6,2.923161581,mg/L,,0,REGN2222,2,.,.,.,.,.,.,2,.,.,.,.,.,.,0,47,F,0,WHITE,1,NOT-HISPANIC-OR-LATINO,0,73.3,166.6,26.4,41.78571429,60.71428571,0.108571429,11.5,12.64285714
89,89,R2222-HV-1326-840001-031,840001031,15,REGN2222-3mg/kg-IM,IM1A,4,16,16,Day-113,112,112.04,.,.,10.5,2.351375257,mg/L,,0,REGN2222,2,.,.,.,.,.,.,2,.,.,.,.,.,.,0,47,F,0,WHITE,1,NOT-HISPANIC-OR-LATINO,0,73.3,166.6,26.4,41.78571429,60.71428571,0.108571429,11.5,12.64285714
90,90,R2222-HV-1326-840001-031,840001031,15,REGN2222-3mg/kg-IM,IM1A,4,17,17,Day-141,140,140.03,.,.,6.89,1.930071085,mg/L,,0,REGN2222,2,.,.,.,.,.,.,2,.,.,.,.,.,.,0,47,F,0,WHITE,1,NOT-HISPANIC-OR-LATINO,0,73.3,166.6,26.4,41.78571429,60.71428571,0.108571429,11.5,12.64285714
91,91,R2222-HV-1326-840001-035,840001035,16,REGN2222-3mg/kg-IM,IM1A,4,.,.,.,.,0,.,.,.,.,.,.,1,REGN2222,1,5,2.954,mg/kg,270,mg,.,1,270,.,2.954,270,.,.,1,18,M,1,OTHER,4,NOT-HISPANIC-OR-LATINO,0,91.4,174.9,29.9,42.66666667,90.46666667,0.226428571,71.86666667,40.93333333
92,92,R2222-HV-1326-840001-035,840001035,16,REGN2222-3mg/kg-IM,IM1A,4,4,4,Day-2,1,0.99792,.,.,18.6,2.923161581,mg/L,,0,REGN2222,2,.,.,.,.,.,.,1,.,.,.,.,.,.,0,18,M,1,OTHER,4,NOT-HISPANIC-OR-LATINO,0,91.4,174.9,29.9,42.66666667,90.46666667,0.226428571,71.86666667,40.93333333
93,93,R2222-HV-1326-840001-035,840001035,16,REGN2222-3mg/kg-IM,IM1A,4,5,5,Day-3,2,2.0014,.,.,32.7,3.487375078,mg/L,,0,REGN2222,2,.,.,.,.,.,.,1,.,.,.,.,.,.,0,18,M,1,OTHER,4,NOT-HISPANIC-OR-LATINO,0,91.4,174.9,29.9,42.66666667,90.46666667,0.226428571,71.86666667,40.93333333
94,94,R2222-HV-1326-840001-035,840001035,16,REGN2222-3mg/kg-IM,IM1A,4,6,6,Day-8,7,7.0681,.,.,39,3.663561646,mg/L,,0,REGN2222,2,.,.,.,.,.,.,1,.,.,.,.,.,.,0,18,M,1,OTHER,4,NOT-HISPANIC-OR-LATINO,0,91.4,174.9,29.9,42.66666667,90.46666667,0.226428571,71.86666667,40.93333333
95,95,R2222-HV-1326-840001-035,840001035,16,REGN2222-3mg/kg-IM,IM1A,4,7,7,Day-15,14,14.073,.,.,32.2,3.471966453,mg/L,,0,REGN2222,2,.,.,.,.,.,.,1,.,.,.,.,.,.,0,18,M,1,OTHER,4,NOT-HISPANIC-OR-LATINO,0,91.4,174.9,29.9,42.66666667,90.46666667,0.226428571,71.86666667,40.93333333
96,96,R2222-HV-1326-840001-035,840001035,16,REGN2222-3mg/kg-IM,IM1A,4,9,9,Day-29,28,28.035,.,.,21.4,3.063390922,mg/L,,0,REGN2222,2,.,.,.,.,.,.,1,.,.,.,.,.,.,0,18,M,1,OTHER,4,NOT-HISPANIC-OR-LATINO,0,91.4,174.9,29.9,42.66666667,90.46666667,0.226428571,71.86666667,40.93333333
97,97,R2222-HV-1326-840001-035,840001035,16,REGN2222-3mg/kg-IM,IM1A,4,.,.,.,.,28.042,.,.,.,.,.,.,1,REGN2222,1,5,3.1182,mg/kg,285,mg,.,2,285,.,3.1182,285,.,.,1,18,M,1,OTHER,4,NOT-HISPANIC-OR-LATINO,0,91.4,174.9,29.9,42.66666667,90.46666667,0.226428571,71.86666667,40.93333333
98,98,R2222-HV-1326-840001-035,840001035,16,REGN2222-3mg/kg-IM,IM1A,4,10,10,Day-30,29,29.043,.,.,42.6,3.751854253,mg/L,,0,REGN2222,2,.,.,.,.,.,.,2,.,.,.,.,.,.,0,18,M,1,OTHER,4,NOT-HISPANIC-OR-LATINO,0,91.4,174.9,29.9,42.66666667,90.46666667,0.226428571,71.86666667,40.93333333
99,99,R2222-HV-1326-840001-035,840001035,16,REGN2222-3mg/kg-IM,IM1A,4,11,11,Day-31,30,30.043,.,.,54,3.988984047,mg/L,,0,REGN2222,2,.,.,.,.,.,.,2,.,.,.,.,.,.,0,18,M,1,OTHER,4,NOT-HISPANIC-OR-LATINO,0,91.4,174.9,29.9,42.66666667,90.46666667,0.226428571,71.86666667,40.93333333
100,100,R2222-HV-1326-840001-035,840001035,16,REGN2222-3mg/kg-IM,IM1A,4,12,12,Day-36,35,35.067,.,.,63.8,4.15575319,mg/L,,0,REGN2222,2,.,.,.,.,.,.,2,.,.,.,.,.,.,0,18,M,1,OTHER,4,NOT-HISPANIC-OR-LATINO,0,91.4,174.9,29.9,42.66666667,90.46666667,0.226428571,71.86666667,40.93333333
101,101,R2222-HV-1326-840001-035,840001035,16,REGN2222-3mg/kg-IM,IM1A,4,13,13,Day-43,42,42.056,.,.,64.7,4.169761202,mg/L,,0,REGN2222,2,.,.,.,.,.,.,2,.,.,.,.,.,.,0,18,M,1,OTHER,4,NOT-HISPANIC-OR-LATINO,0,91.4,174.9,29.9,42.66666667,90.46666667,0.226428571,71.86666667,40.93333333
102,102,R2222-HV-1326-840001-035,840001035,16,REGN2222-3mg/kg-IM,IM1A,4,14,14,Day-57,56,56.066,.,.,43.6,3.77505715,mg/L,,0,REGN2222,2,.,.,.,.,.,.,2,.,.,.,.,.,.,0,18,M,1,OTHER,4,NOT-HISPANIC-OR-LATINO,0,91.4,174.9,29.9,42.66666667,90.46666667,0.226428571,71.86666667,40.93333333
103,103,R2222-HV-1326-840001-035,840001035,16,REGN2222-3mg/kg-IM,IM1A,4,15,15,Day-85,84,84.06,.,.,15.7,2.753660712,mg/L,,0,REGN2222,2,.,.,.,.,.,.,2,.,.,.,.,.,.,0,18,M,1,OTHER,4,NOT-HISPANIC-OR-LATINO,0,91.4,174.9,29.9,42.66666667,90.46666667,0.226428571,71.86666667,40.93333333
104,104,R2222-HV-1326-840001-035,840001035,16,REGN2222-3mg/kg-IM,IM1A,4,16,16,Day-113,112,112.04,.,.,8.31,2.117459609,mg/L,,0,REGN2222,2,.,.,.,.,.,.,2,.,.,.,.,.,.,0,18,M,1,OTHER,4,NOT-HISPANIC-OR-LATINO,0,91.4,174.9,29.9,42.66666667,90.46666667,0.226428571,71.86666667,40.93333333
105,105,R2222-HV-1326-840001-035,840001035,16,REGN2222-3mg/kg-IM,IM1A,4,17,17,Day-141,140,140.07,.,.,4.43,1.488399584,mg/L,,0,REGN2222,2,.,.,.,.,.,.,2,.,.,.,.,.,.,0,18,M,1,OTHER,4,NOT-HISPANIC-OR-LATINO,0,91.4,174.9,29.9,42.66666667,90.46666667,0.226428571,71.86666667,40.93333333
106,106,R2222-HV-1326-840001-037,840001037,18,REGN2222-3mg/kg-IM,IM1A,4,.,.,.,.,0,.,.,.,.,.,.,1,REGN2222,1,5,3.0508,mg/kg,270,mg,.,1,270,.,3.0508,270,.,.,1,59,M,1,WHITE,1,NOT-HISPANIC-OR-LATINO,0,88.5,180.4,27.2,39.28571429,74.21428571,0.172142857,14.14285714,16.78571429
107,107,R2222-HV-1326-840001-037,840001037,18,REGN2222-3mg/kg-IM,IM1A,4,4,4,Day-2,1,0.99861,.,.,8.14,2.09679018,mg/L,,0,REGN2222,2,.,.,.,.,.,.,1,.,.,.,.,.,.,0,59,M,1,WHITE,1,NOT-HISPANIC-OR-LATINO,0,88.5,180.4,27.2,39.28571429,74.21428571,0.172142857,14.14285714,16.78571429
108,108,R2222-HV-1326-840001-037,840001037,18,REGN2222-3mg/kg-IM,IM1A,4,5,5,Day-3,2,2.0035,.,.,11.5,2.442347035,mg/L,,0,REGN2222,2,.,.,.,.,.,.,1,.,.,.,.,.,.,0,59,M,1,WHITE,1,NOT-HISPANIC-OR-LATINO,0,88.5,180.4,27.2,39.28571429,74.21428571,0.172142857,14.14285714,16.78571429
109,109,R2222-HV-1326-840001-037,840001037,18,REGN2222-3mg/kg-IM,IM1A,4,6,6,Day-8,7,7.0667,.,.,25,3.218875825,mg/L,,0,REGN2222,2,.,.,.,.,.,.,1,.,.,.,.,.,.,0,59,M,1,WHITE,1,NOT-HISPANIC-OR-LATINO,0,88.5,180.4,27.2,39.28571429,74.21428571,0.172142857,14.14285714,16.78571429
110,110,R2222-HV-1326-840001-037,840001037,18,REGN2222-3mg/kg-IM,IM1A,4,7,7,Day-15,14,14.035,.,.,14.2,2.653241965,mg/L,,0,REGN2222,2,.,.,.,.,.,.,1,.,.,.,.,.,.,0,59,M,1,WHITE,1,NOT-HISPANIC-OR-LATINO,0,88.5,180.4,27.2,39.28571429,74.21428571,0.172142857,14.14285714,16.78571429
111,111,R2222-HV-1326-840001-037,840001037,18,REGN2222-3mg/kg-IM,IM1A,4,9,9,Day-29,28,28.035,.,.,13.1,2.57261223,mg/L,,0,REGN2222,2,.,.,.,.,.,.,1,.,.,.,.,.,.,0,59,M,1,WHITE,1,NOT-HISPANIC-OR-LATINO,0,88.5,180.4,27.2,39.28571429,74.21428571,0.172142857,14.14285714,16.78571429
112,112,R2222-HV-1326-840001-037,840001037,18,REGN2222-3mg/kg-IM,IM1A,4,.,.,.,.,28.042,.,.,.,.,.,.,1,REGN2222,1,5,3.0508,mg/kg,270,mg,.,2,270,.,3.0508,270,.,.,1,59,M,1,WHITE,1,NOT-HISPANIC-OR-LATINO,0,88.5,180.4,27.2,39.28571429,74.21428571,0.172142857,14.14285714,16.78571429
113,113,R2222-HV-1326-840001-037,840001037,18,REGN2222-3mg/kg-IM,IM1A,4,10,10,Day-30,29,29.042,.,.,18.7,2.928523524,mg/L,,0,REGN2222,2,.,.,.,.,.,.,2,.,.,.,.,.,.,0,59,M,1,WHITE,1,NOT-HISPANIC-OR-LATINO,0,88.5,180.4,27.2,39.28571429,74.21428571,0.172142857,14.14285714,16.78571429
114,114,R2222-HV-1326-840001-037,840001037,18,REGN2222-3mg/kg-IM,IM1A,4,11,11,Day-31,30,30.043,.,.,22.3,3.104586678,mg/L,,0,REGN2222,2,.,.,.,.,.,.,2,.,.,.,.,.,.,0,59,M,1,WHITE,1,NOT-HISPANIC-OR-LATINO,0,88.5,180.4,27.2,39.28571429,74.21428571,0.172142857,14.14285714,16.78571429
115,115,R2222-HV-1326-840001-037,840001037,18,REGN2222-3mg/kg-IM,IM1A,4,12,12,Day-36,35,35.022,.,.,51.7,3.945457782,mg/L,,0,REGN2222,2,.,.,.,.,.,.,2,.,.,.,.,.,.,0,59,M,1,WHITE,1,NOT-HISPANIC-OR-LATINO,0,88.5,180.4,27.2,39.28571429,74.21428571,0.172142857,14.14285714,16.78571429
116,116,R2222-HV-1326-840001-037,840001037,18,REGN2222-3mg/kg-IM,IM1A,4,13,13,Day-43,42,42.031,.,.,45.5,3.817712326,mg/L,,0,REGN2222,2,.,.,.,.,.,.,2,.,.,.,.,.,.,0,59,M,1,WHITE,1,NOT-HISPANIC-OR-LATINO,0,88.5,180.4,27.2,39.28571429,74.21428571,0.172142857,14.14285714,16.78571429
117,117,R2222-HV-1326-840001-037,840001037,18,REGN2222-3mg/kg-IM,IM1A,4,14,14,Day-57,56,56.042,.,.,21.5,3.068052935,mg/L,,0,REGN2222,2,.,.,.,.,.,.,2,.,.,.,.,.,.,0,59,M,1,WHITE,1,NOT-HISPANIC-OR-LATINO,0,88.5,180.4,27.2,39.28571429,74.21428571,0.172142857,14.14285714,16.78571429
118,118,R2222-HV-1326-840001-037,840001037,18,REGN2222-3mg/kg-IM,IM1A,4,15,15,Day-85,84,84.015,.,.,13.5,2.602689685,mg/L,,0,REGN2222,2,.,.,.,.,.,.,2,.,.,.,.,.,.,0,59,M,1,WHITE,1,NOT-HISPANIC-OR-LATINO,0,88.5,180.4,27.2,39.28571429,74.21428571,0.172142857,14.14285714,16.78571429
119,119,R2222-HV-1326-840001-037,840001037,18,REGN2222-3mg/kg-IM,IM1A,4,16,16,Day-113,112,112.05,.,.,6.74,1.908059925,mg/L,,0,REGN2222,2,.,.,.,.,.,.,2,.,.,.,.,.,.,0,59,M,1,WHITE,1,NOT-HISPANIC-OR-LATINO,0,88.5,180.4,27.2,39.28571429,74.21428571,0.172142857,14.14285714,16.78571429
120,120,R2222-HV-1326-840001-037,840001037,18,REGN2222-3mg/kg-IM,IM1A,4,17,17,Day-141,140,140.02,.,.,2.94,1.078409581,mg/L,,0,REGN2222,2,.,.,.,.,.,.,2,.,.,.,.,.,.,0,59,M,1,WHITE,1,NOT-HISPANIC-OR-LATINO,0,88.5,180.4,27.2,39.28571429,74.21428571,0.172142857,14.14285714,16.78571429
121,121,R2222-HV-1326-840001-038,840001038,19,REGN2222-3mg/kg-IM,IM1A,4,.,.,.,.,0,.,.,.,.,.,.,1,REGN2222,1,5,2.9925,mg/kg,240,mg,.,1,240,.,2.9925,240,.,.,1,31,F,0,WHITE,1,NOT-HISPANIC-OR-LATINO,0,80.2,161.6,30.7,42.73333333,65.6,0.115333333,17.66666667,14.73333333
122,122,R2222-HV-1326-840001-038,840001038,19,REGN2222-3mg/kg-IM,IM1A,4,4,4,Day-2,1,0.99861,.,.,10.3,2.332143895,mg/L,,0,REGN2222,2,.,.,.,.,.,.,1,.,.,.,.,.,.,0,31,F,0,WHITE,1,NOT-HISPANIC-OR-LATINO,0,80.2,161.6,30.7,42.73333333,65.6,0.115333333,17.66666667,14.73333333
123,123,R2222-HV-1326-840001-038,840001038,19,REGN2222-3mg/kg-IM,IM1A,4,5,5,Day-3,2,2.0035,.,.,20.2,3.005682604,mg/L,,0,REGN2222,2,.,.,.,.,.,.,1,.,.,.,.,.,.,0,31,F,0,WHITE,1,NOT-HISPANIC-OR-LATINO,0,80.2,161.6,30.7,42.73333333,65.6,0.115333333,17.66666667,14.73333333
124,124,R2222-HV-1326-840001-038,840001038,19,REGN2222-3mg/kg-IM,IM1A,4,6,6,Day-8,7,7.0521,.,.,30.9,3.430756184,mg/L,,0,REGN2222,2,.,.,.,.,.,.,1,.,.,.,.,.,.,0,31,F,0,WHITE,1,NOT-HISPANIC-OR-LATINO,0,80.2,161.6,30.7,42.73333333,65.6,0.115333333,17.66666667,14.73333333
125,125,R2222-HV-1326-840001-038,840001038,19,REGN2222-3mg/kg-IM,IM1A,4,7,7,Day-15,14,14.059,.,.,31.2,3.440418095,mg/L,,0,REGN2222,2,.,.,.,.,.,.,1,.,.,.,.,.,.,0,31,F,0,WHITE,1,NOT-HISPANIC-OR-LATINO,0,80.2,161.6,30.7,42.73333333,65.6,0.115333333,17.66666667,14.73333333
126,126,R2222-HV-1326-840001-038,840001038,19,REGN2222-3mg/kg-IM,IM1A,4,9,9,Day-29,28,28.037,.,.,20.9,3.039749159,mg/L,,0,REGN2222,2,.,.,.,.,.,.,1,.,.,.,.,.,.,0,31,F,0,WHITE,1,NOT-HISPANIC-OR-LATINO,0,80.2,161.6,30.7,42.73333333,65.6,0.115333333,17.66666667,14.73333333
127,127,R2222-HV-1326-840001-038,840001038,19,REGN2222-3mg/kg-IM,IM1A,4,.,.,.,.,28.042,.,.,.,.,.,.,1,REGN2222,1,5,2.9925,mg/kg,240,mg,.,2,240,.,2.9925,240,.,.,1,31,F,0,WHITE,1,NOT-HISPANIC-OR-LATINO,0,80.2,161.6,30.7,42.73333333,65.6,0.115333333,17.66666667,14.73333333
128,128,R2222-HV-1326-840001-038,840001038,19,REGN2222-3mg/kg-IM,IM1A,4,10,10,Day-30,29,29.043,.,.,25.1,3.222867846,mg/L,,0,REGN2222,2,.,.,.,.,.,.,2,.,.,.,.,.,.,0,31,F,0,WHITE,1,NOT-HISPANIC-OR-LATINO,0,80.2,161.6,30.7,42.73333333,65.6,0.115333333,17.66666667,14.73333333
129,129,R2222-HV-1326-840001-038,840001038,19,REGN2222-3mg/kg-IM,IM1A,4,11,11,Day-31,30,30.049,.,.,30,3.401197382,mg/L,,0,REGN2222,2,.,.,.,.,.,.,2,.,.,.,.,.,.,0,31,F,0,WHITE,1,NOT-HISPANIC-OR-LATINO,0,80.2,161.6,30.7,42.73333333,65.6,0.115333333,17.66666667,14.73333333
130,130,R2222-HV-1326-840001-038,840001038,19,REGN2222-3mg/kg-IM,IM1A,4,12,12,Day-36,35,35.024,.,.,48.7,3.88567903,mg/L,,0,REGN2222,2,.,.,.,.,.,.,2,.,.,.,.,.,.,0,31,F,0,WHITE,1,NOT-HISPANIC-OR-LATINO,0,80.2,161.6,30.7,42.73333333,65.6,0.115333333,17.66666667,14.73333333
131,131,R2222-HV-1326-840001-038,840001038,19,REGN2222-3mg/kg-IM,IM1A,4,13,13,Day-43,42,42.048,.,.,46.5,3.839452313,mg/L,,0,REGN2222,2,.,.,.,.,.,.,2,.,.,.,.,.,.,0,31,F,0,WHITE,1,NOT-HISPANIC-OR-LATINO,0,80.2,161.6,30.7,42.73333333,65.6,0.115333333,17.66666667,14.73333333
132,132,R2222-HV-1326-840001-038,840001038,19,REGN2222-3mg/kg-IM,IM1A,4,14,14,Day-57,56,56.048,.,.,37,3.610917913,mg/L,,0,REGN2222,2,.,.,.,.,.,.,2,.,.,.,.,.,.,0,31,F,0,WHITE,1,NOT-HISPANIC-OR-LATINO,0,80.2,161.6,30.7,42.73333333,65.6,0.115333333,17.66666667,14.73333333
133,133,R2222-HV-1326-840001-038,840001038,19,REGN2222-3mg/kg-IM,IM1A,4,15,15,Day-85,84,84.042,.,.,15.5,2.740840024,mg/L,,0,REGN2222,2,.,.,.,.,.,.,2,.,.,.,.,.,.,0,31,F,0,WHITE,1,NOT-HISPANIC-OR-LATINO,0,80.2,161.6,30.7,42.73333333,65.6,0.115333333,17.66666667,14.73333333
134,134,R2222-HV-1326-840001-038,840001038,19,REGN2222-3mg/kg-IM,IM1A,4,16,16,Day-113,112,112.08,.,.,7.87,2.063058062,mg/L,,0,REGN2222,2,.,.,.,.,.,.,2,.,.,.,.,.,.,0,31,F,0,WHITE,1,NOT-HISPANIC-OR-LATINO,0,80.2,161.6,30.7,42.73333333,65.6,0.115333333,17.66666667,14.73333333
135,135,R2222-HV-1326-840001-038,840001038,19,REGN2222-3mg/kg-IM,IM1A,4,17,17,Day-141,140,140.06,.,.,3.4,1.223775432,mg/L,,0,REGN2222,2,.,.,.,.,.,.,2,.,.,.,.,.,.,0,31,F,0,WHITE,1,NOT-HISPANIC-OR-LATINO,0,80.2,161.6,30.7,42.73333333,65.6,0.115333333,17.66666667,14.73333333
136,136,R2222-HV-1326-840001-040,840001040,20,REGN2222-3mg/kg-IM,IM1A,4,.,.,.,.,0,.,.,.,.,.,.,1,REGN2222,1,5,2.9277,mg/kg,255,mg,.,1,255,.,2.9277,255,.,.,1,51,M,1,BLACK,2,NOT-HISPANIC-OR-LATINO,0,87.1,169.9,30.2,40.85714286,129.1428571,0.127142857,20.78571429,20.35714286
137,137,R2222-HV-1326-840001-040,840001040,20,REGN2222-3mg/kg-IM,IM1A,4,4,4,Day-2,1,0.99792,.,.,9.08,2.206074193,mg/L,,0,REGN2222,2,.,.,.,.,.,.,1,.,.,.,.,.,.,0,51,M,1,BLACK,2,NOT-HISPANIC-OR-LATINO,0,87.1,169.9,30.2,40.85714286,129.1428571,0.127142857,20.78571429,20.35714286
138,138,R2222-HV-1326-840001-040,840001040,20,REGN2222-3mg/kg-IM,IM1A,4,5,5,Day-3,2,2.0035,.,.,17.3,2.850706502,mg/L,,0,REGN2222,2,.,.,.,.,.,.,1,.,.,.,.,.,.,0,51,M,1,BLACK,2,NOT-HISPANIC-OR-LATINO,0,87.1,169.9,30.2,40.85714286,129.1428571,0.127142857,20.78571429,20.35714286
139,139,R2222-HV-1326-840001-040,840001040,20,REGN2222-3mg/kg-IM,IM1A,4,6,6,Day-8,7,7.0354,.,.,24.6,3.202746443,mg/L,,0,REGN2222,2,.,.,.,.,.,.,1,.,.,.,.,.,.,0,51,M,1,BLACK,2,NOT-HISPANIC-OR-LATINO,0,87.1,169.9,30.2,40.85714286,129.1428571,0.127142857,20.78571429,20.35714286
140,140,R2222-HV-1326-840001-040,840001040,20,REGN2222-3mg/kg-IM,IM1A,4,7,7,Day-15,14,14.025,.,.,21.8,3.08190997,mg/L,,0,REGN2222,2,.,.,.,.,.,.,1,.,.,.,.,.,.,0,51,M,1,BLACK,2,NOT-HISPANIC-OR-LATINO,0,87.1,169.9,30.2,40.85714286,129.1428571,0.127142857,20.78571429,20.35714286
141,141,R2222-HV-1326-840001-040,840001040,20,REGN2222-3mg/kg-IM,IM1A,4,9,9,Day-29,28,28.035,.,.,13,2.564949357,mg/L,,0,REGN2222,2,.,.,.,.,.,.,1,.,.,.,.,.,.,0,51,M,1,BLACK,2,NOT-HISPANIC-OR-LATINO,0,87.1,169.9,30.2,40.85714286,129.1428571,0.127142857,20.78571429,20.35714286
142,142,R2222-HV-1326-840001-040,840001040,20,REGN2222-3mg/kg-IM,IM1A,4,.,.,.,.,28.042,.,.,.,.,.,.,1,REGN2222,1,5,3.0999,mg/kg,270,mg,.,2,270,.,3.0999,270,.,.,1,51,M,1,BLACK,2,NOT-HISPANIC-OR-LATINO,0,87.1,169.9,30.2,40.85714286,129.1428571,0.127142857,20.78571429,20.35714286
143,143,R2222-HV-1326-840001-040,840001040,20,REGN2222-3mg/kg-IM,IM1A,4,10,10,Day-30,29,29.042,.,.,20.1,3.000719815,mg/L,,0,REGN2222,2,.,.,.,.,.,.,2,.,.,.,.,.,.,0,51,M,1,BLACK,2,NOT-HISPANIC-OR-LATINO,0,87.1,169.9,30.2,40.85714286,129.1428571,0.127142857,20.78571429,20.35714286
144,144,R2222-HV-1326-840001-040,840001040,20,REGN2222-3mg/kg-IM,IM1A,4,11,11,Day-31,30,30.047,.,.,28.8,3.360375387,mg/L,,0,REGN2222,2,.,.,.,.,.,.,2,.,.,.,.,.,.,0,51,M,1,BLACK,2,NOT-HISPANIC-OR-LATINO,0,87.1,169.9,30.2,40.85714286,129.1428571,0.127142857,20.78571429,20.35714286
145,145,R2222-HV-1326-840001-040,840001040,20,REGN2222-3mg/kg-IM,IM1A,4,12,12,Day-36,35,35.028,.,.,58,4.060443011,mg/L,,0,REGN2222,2,.,.,.,.,.,.,2,.,.,.,.,.,.,0,51,M,1,BLACK,2,NOT-HISPANIC-OR-LATINO,0,87.1,169.9,30.2,40.85714286,129.1428571,0.127142857,20.78571429,20.35714286
146,146,R2222-HV-1326-840001-040,840001040,20,REGN2222-3mg/kg-IM,IM1A,4,13,13,Day-43,42,42.06,.,.,49.4,3.899950424,mg/L,,0,REGN2222,2,.,.,.,.,.,.,2,.,.,.,.,.,.,0,51,M,1,BLACK,2,NOT-HISPANIC-OR-LATINO,0,87.1,169.9,30.2,40.85714286,129.1428571,0.127142857,20.78571429,20.35714286
147,147,R2222-HV-1326-840001-040,840001040,20,REGN2222-3mg/kg-IM,IM1A,4,14,14,Day-57,56,57.994,.,.,21.6,3.072693315,mg/L,,0,REGN2222,2,.,.,.,.,.,.,2,.,.,.,.,.,.,0,51,M,1,BLACK,2,NOT-HISPANIC-OR-LATINO,0,87.1,169.9,30.2,40.85714286,129.1428571,0.127142857,20.78571429,20.35714286
148,148,R2222-HV-1326-840001-040,840001040,20,REGN2222-3mg/kg-IM,IM1A,4,15,15,Day-85,84,84.017,.,.,7.85,2.060513532,mg/L,,0,REGN2222,2,.,.,.,.,.,.,2,.,.,.,.,.,.,0,51,M,1,BLACK,2,NOT-HISPANIC-OR-LATINO,0,87.1,169.9,30.2,40.85714286,129.1428571,0.127142857,20.78571429,20.35714286
149,149,R2222-HV-1326-840001-040,840001040,20,REGN2222-3mg/kg-IM,IM1A,4,16,16,Day-113,112,114.04,.,.,2.96,1.085189268,mg/L,,0,REGN2222,2,.,.,.,.,.,.,2,.,.,.,.,.,.,0,51,M,1,BLACK,2,NOT-HISPANIC-OR-LATINO,0,87.1,169.9,30.2,40.85714286,129.1428571,0.127142857,20.78571429,20.35714286
150,150,R2222-HV-1326-840001-040,840001040,20,REGN2222-3mg/kg-IM,IM1A,4,17,17,Day-141,140,140.08,.,.,1.04,0.039220713,mg/L,,0,REGN2222,2,.,.,.,.,.,.,2,.,.,.,.,.,.,0,51,M,1,BLACK,2,NOT-HISPANIC-OR-LATINO,0,87.1,169.9,30.2,40.85714286,129.1428571,0.127142857,20.78571429,20.35714286
151,151,R2222-HV-1326-840001-043,840001043,21,REGN2222-3mg/kg-IM,IM1A,4,.,.,.,.,0,.,.,.,.,.,.,1,REGN2222,1,5,3.1469,mg/kg,180,mg,.,1,180,.,3.1469,180,.,.,1,19,M,1,WHITE,1,NOT-HISPANIC-OR-LATINO,0,57.2,169.5,19.9,46.28571429,77.35714286,0.247857143,14.28571429,18.35714286
152,152,R2222-HV-1326-840001-043,840001043,21,REGN2222-3mg/kg-IM,IM1A,4,4,4,Day-2,1,0.99861,.,.,15.7,2.753660712,mg/L,,0,REGN2222,2,.,.,.,.,.,.,1,.,.,.,.,.,.,0,19,M,1,WHITE,1,NOT-HISPANIC-OR-LATINO,0,57.2,169.5,19.9,46.28571429,77.35714286,0.247857143,14.28571429,18.35714286
153,153,R2222-HV-1326-840001-043,840001043,21,REGN2222-3mg/kg-IM,IM1A,4,5,5,Day-3,2,2.0035,.,.,25.5,3.238678452,mg/L,,0,REGN2222,2,.,.,.,.,.,.,1,.,.,.,.,.,.,0,19,M,1,WHITE,1,NOT-HISPANIC-OR-LATINO,0,57.2,169.5,19.9,46.28571429,77.35714286,0.247857143,14.28571429,18.35714286
154,154,R2222-HV-1326-840001-043,840001043,21,REGN2222-3mg/kg-IM,IM1A,4,6,6,Day-8,7,7.05,.,.,28.4,3.346389145,mg/L,,0,REGN2222,2,.,.,.,.,.,.,1,.,.,.,.,.,.,0,19,M,1,WHITE,1,NOT-HISPANIC-OR-LATINO,0,57.2,169.5,19.9,46.28571429,77.35714286,0.247857143,14.28571429,18.35714286
155,155,R2222-HV-1326-840001-043,840001043,21,REGN2222-3mg/kg-IM,IM1A,4,7,7,Day-15,14,14.061,.,.,23,3.135494216,mg/L,,0,REGN2222,2,.,.,.,.,.,.,1,.,.,.,.,.,.,0,19,M,1,WHITE,1,NOT-HISPANIC-OR-LATINO,0,57.2,169.5,19.9,46.28571429,77.35714286,0.247857143,14.28571429,18.35714286
156,156,R2222-HV-1326-840001-043,840001043,21,REGN2222-3mg/kg-IM,IM1A,4,9,9,Day-29,28,28.035,.,.,16.6,2.809402695,mg/L,,0,REGN2222,2,.,.,.,.,.,.,1,.,.,.,.,.,.,0,19,M,1,WHITE,1,NOT-HISPANIC-OR-LATINO,0,57.2,169.5,19.9,46.28571429,77.35714286,0.247857143,14.28571429,18.35714286
157,157,R2222-HV-1326-840001-043,840001043,21,REGN2222-3mg/kg-IM,IM1A,4,.,.,.,.,28.042,.,.,.,.,.,.,1,REGN2222,1,5,3.1469,mg/kg,180,mg,.,2,180,.,3.1469,180,.,.,1,19,M,1,WHITE,1,NOT-HISPANIC-OR-LATINO,0,57.2,169.5,19.9,46.28571429,77.35714286,0.247857143,14.28571429,18.35714286
158,158,R2222-HV-1326-840001-043,840001043,21,REGN2222-3mg/kg-IM,IM1A,4,10,10,Day-30,29,29.042,.,.,27.2,3.303216973,mg/L,,0,REGN2222,2,.,.,.,.,.,.,2,.,.,.,.,.,.,0,19,M,1,WHITE,1,NOT-HISPANIC-OR-LATINO,0,57.2,169.5,19.9,46.28571429,77.35714286,0.247857143,14.28571429,18.35714286
159,159,R2222-HV-1326-840001-043,840001043,21,REGN2222-3mg/kg-IM,IM1A,4,11,11,Day-31,30,30.049,.,.,39.3,3.671224519,mg/L,,0,REGN2222,2,.,.,.,.,.,.,2,.,.,.,.,.,.,0,19,M,1,WHITE,1,NOT-HISPANIC-OR-LATINO,0,57.2,169.5,19.9,46.28571429,77.35714286,0.247857143,14.28571429,18.35714286
160,160,R2222-HV-1326-840001-043,840001043,21,REGN2222-3mg/kg-IM,IM1A,4,12,12,Day-36,35,35.059,.,.,63.8,4.15575319,mg/L,,0,REGN2222,2,.,.,.,.,.,.,2,.,.,.,.,.,.,0,19,M,1,WHITE,1,NOT-HISPANIC-OR-LATINO,0,57.2,169.5,19.9,46.28571429,77.35714286,0.247857143,14.28571429,18.35714286
161,161,R2222-HV-1326-840001-043,840001043,21,REGN2222-3mg/kg-IM,IM1A,4,13,13,Day-43,42,42.042,.,.,45.3,3.813307032,mg/L,,0,REGN2222,2,.,.,.,.,.,.,2,.,.,.,.,.,.,0,19,M,1,WHITE,1,NOT-HISPANIC-OR-LATINO,0,57.2,169.5,19.9,46.28571429,77.35714286,0.247857143,14.28571429,18.35714286
162,162,R2222-HV-1326-840001-043,840001043,21,REGN2222-3mg/kg-IM,IM1A,4,14,14,Day-57,56,56.058,.,.,34.4,3.538056564,mg/L,,0,REGN2222,2,.,.,.,.,.,.,2,.,.,.,.,.,.,0,19,M,1,WHITE,1,NOT-HISPANIC-OR-LATINO,0,57.2,169.5,19.9,46.28571429,77.35714286,0.247857143,14.28571429,18.35714286
163,163,R2222-HV-1326-840001-043,840001043,21,REGN2222-3mg/kg-IM,IM1A,4,15,15,Day-85,84,84.051,.,.,23.2,3.144152279,mg/L,,0,REGN2222,2,.,.,.,.,.,.,2,.,.,.,.,.,.,0,19,M,1,WHITE,1,NOT-HISPANIC-OR-LATINO,0,57.2,169.5,19.9,46.28571429,77.35714286,0.247857143,14.28571429,18.35714286
164,164,R2222-HV-1326-840001-043,840001043,21,REGN2222-3mg/kg-IM,IM1A,4,16,16,Day-113,112,112.02,.,.,15.9,2.766319109,mg/L,,0,REGN2222,2,.,.,.,.,.,.,2,.,.,.,.,.,.,0,19,M,1,WHITE,1,NOT-HISPANIC-OR-LATINO,0,57.2,169.5,19.9,46.28571429,77.35714286,0.247857143,14.28571429,18.35714286
165,165,R2222-HV-1326-840001-043,840001043,21,REGN2222-3mg/kg-IM,IM1A,4,17,17,Day-141,140,140.06,.,.,7.5,2.014903021,mg/L,,0,REGN2222,2,.,.,.,.,.,.,2,.,.,.,.,.,.,0,19,M,1,WHITE,1,NOT-HISPANIC-OR-LATINO,0,57.2,169.5,19.9,46.28571429,77.35714286,0.247857143,14.28571429,18.35714286
166,166,R2222-HV-1326-840001-047,840001047,22,REGN2222-3mg/kg-IM,IM1A,4,.,.,.,.,0,.,.,.,.,.,.,1,REGN2222,1,5,3.1288,mg/kg,255,mg,.,1,255,.,3.1288,255,.,.,1,60,F,0,WHITE,1,NOT-HISPANIC-OR-LATINO,0,81.5,168.2,28.8,41.14285714,62,0.160714286,12.71428571,13.64285714
167,167,R2222-HV-1326-840001-047,840001047,22,REGN2222-3mg/kg-IM,IM1A,4,4,4,Day-2,1,0.99861,.,.,8.96,2.192770227,mg/L,,0,REGN2222,2,.,.,.,.,.,.,1,.,.,.,.,.,.,0,60,F,0,WHITE,1,NOT-HISPANIC-OR-LATINO,0,81.5,168.2,28.8,41.14285714,62,0.160714286,12.71428571,13.64285714
168,168,R2222-HV-1326-840001-047,840001047,22,REGN2222-3mg/kg-IM,IM1A,4,5,5,Day-3,2,2.0035,.,.,19.6,2.975529566,mg/L,,0,REGN2222,2,.,.,.,.,.,.,1,.,.,.,.,.,.,0,60,F,0,WHITE,1,NOT-HISPANIC-OR-LATINO,0,81.5,168.2,28.8,41.14285714,62,0.160714286,12.71428571,13.64285714
169,169,R2222-HV-1326-840001-047,840001047,22,REGN2222-3mg/kg-IM,IM1A,4,6,6,Day-8,7,7.0368,.,.,29,3.36729583,mg/L,,0,REGN2222,2,.,.,.,.,.,.,1,.,.,.,.,.,.,0,60,F,0,WHITE,1,NOT-HISPANIC-OR-LATINO,0,81.5,168.2,28.8,41.14285714,62,0.160714286,12.71428571,13.64285714
170,170,R2222-HV-1326-840001-047,840001047,22,REGN2222-3mg/kg-IM,IM1A,4,7,7,Day-15,14,14.035,.,.,24.7,3.206803244,mg/L,,0,REGN2222,2,.,.,.,.,.,.,1,.,.,.,.,.,.,0,60,F,0,WHITE,1,NOT-HISPANIC-OR-LATINO,0,81.5,168.2,28.8,41.14285714,62,0.160714286,12.71428571,13.64285714
171,171,R2222-HV-1326-840001-047,840001047,22,REGN2222-3mg/kg-IM,IM1A,4,9,9,Day-29,28,28.035,.,.,11.8,2.468099531,mg/L,,0,REGN2222,2,.,.,.,.,.,.,1,.,.,.,.,.,.,0,60,F,0,WHITE,1,NOT-HISPANIC-OR-LATINO,0,81.5,168.2,28.8,41.14285714,62,0.160714286,12.71428571,13.64285714
172,172,R2222-HV-1326-840001-047,840001047,22,REGN2222-3mg/kg-IM,IM1A,4,.,.,.,.,28.042,.,.,.,.,.,.,1,REGN2222,1,5,3.1288,mg/kg,255,mg,.,2,255,.,3.1288,255,.,.,1,60,F,0,WHITE,1,NOT-HISPANIC-OR-LATINO,0,81.5,168.2,28.8,41.14285714,62,0.160714286,12.71428571,13.64285714
173,173,R2222-HV-1326-840001-047,840001047,22,REGN2222-3mg/kg-IM,IM1A,4,10,10,Day-30,29,29.042,.,.,18.2,2.901421594,mg/L,,0,REGN2222,2,.,.,.,.,.,.,2,.,.,.,.,.,.,0,60,F,0,WHITE,1,NOT-HISPANIC-OR-LATINO,0,81.5,168.2,28.8,41.14285714,62,0.160714286,12.71428571,13.64285714
174,174,R2222-HV-1326-840001-047,840001047,22,REGN2222-3mg/kg-IM,IM1A,4,11,11,Day-31,30,30.049,.,.,22.7,3.122364924,mg/L,,0,REGN2222,2,.,.,.,.,.,.,2,.,.,.,.,.,.,0,60,F,0,WHITE,1,NOT-HISPANIC-OR-LATINO,0,81.5,168.2,28.8,41.14285714,62,0.160714286,12.71428571,13.64285714
175,175,R2222-HV-1326-840001-047,840001047,22,REGN2222-3mg/kg-IM,IM1A,4,12,12,Day-36,35,35.018,.,.,53.7,3.983413002,mg/L,,0,REGN2222,2,.,.,.,.,.,.,2,.,.,.,.,.,.,0,60,F,0,WHITE,1,NOT-HISPANIC-OR-LATINO,0,81.5,168.2,28.8,41.14285714,62,0.160714286,12.71428571,13.64285714
176,176,R2222-HV-1326-840001-047,840001047,22,REGN2222-3mg/kg-IM,IM1A,4,13,13,Day-43,42,42.025,.,.,48.9,3.889777396,mg/L,,0,REGN2222,2,.,.,.,.,.,.,2,.,.,.,.,.,.,0,60,F,0,WHITE,1,NOT-HISPANIC-OR-LATINO,0,81.5,168.2,28.8,41.14285714,62,0.160714286,12.71428571,13.64285714
177,177,R2222-HV-1326-840001-047,840001047,22,REGN2222-3mg/kg-IM,IM1A,4,14,14,Day-57,56,56.028,.,.,33.1,3.499533282,mg/L,,0,REGN2222,2,.,.,.,.,.,.,2,.,.,.,.,.,.,0,60,F,0,WHITE,1,NOT-HISPANIC-OR-LATINO,0,81.5,168.2,28.8,41.14285714,62,0.160714286,12.71428571,13.64285714
178,178,R2222-HV-1326-840001-047,840001047,22,REGN2222-3mg/kg-IM,IM1A,4,15,15,Day-85,84,84.024,.,.,16,2.772588722,mg/L,,0,REGN2222,2,.,.,.,.,.,.,2,.,.,.,.,.,.,0,60,F,0,WHITE,1,NOT-HISPANIC-OR-LATINO,0,81.5,168.2,28.8,41.14285714,62,0.160714286,12.71428571,13.64285714
179,179,R2222-HV-1326-840001-047,840001047,22,REGN2222-3mg/kg-IM,IM1A,4,16,16,Day-113,112,112.05,.,.,10.1,2.312535424,mg/L,,0,REGN2222,2,.,.,.,.,.,.,2,.,.,.,.,.,.,0,60,F,0,WHITE,1,NOT-HISPANIC-OR-LATINO,0,81.5,168.2,28.8,41.14285714,62,0.160714286,12.71428571,13.64285714
180,180,R2222-HV-1326-840001-047,840001047,22,REGN2222-3mg/kg-IM,IM1A,4,17,17,Day-141,140,140.04,.,.,4.42,1.486139696,mg/L,,0,REGN2222,2,.,.,.,.,.,.,2,.,.,.,.,.,.,0,60,F,0,WHITE,1,NOT-HISPANIC-OR-LATINO,0,81.5,168.2,28.8,41.14285714,62,0.160714286,12.71428571,13.64285714
181,181,R2222-HV-1326-840002-035,840002035,54,REGN2222-3mg/kg-IM,IM1B,4,.,.,.,.,0,.,.,.,.,.,.,1,REGN2222,1,5,2.9619,mg/kg,210,mg,.,1,210,.,2.9619,210,.,.,1,30,M,1,WHITE,1,NOT-HISPANIC-OR-LATINO,0,70.9,178.3,22.3,43.25,87.5,0.030833333,21,19.58333333
182,182,R2222-HV-1326-840002-035,840002035,54,REGN2222-3mg/kg-IM,IM1B,4,4,4,Day-2,1,1,.,.,11.1,2.406945108,mg/L,,0,REGN2222,2,.,.,.,.,.,.,1,.,.,.,.,.,.,0,30,M,1,WHITE,1,NOT-HISPANIC-OR-LATINO,0,70.9,178.3,22.3,43.25,87.5,0.030833333,21,19.58333333
183,183,R2222-HV-1326-840002-035,840002035,54,REGN2222-3mg/kg-IM,IM1B,4,5,5,Day-3,2,1.9167,.,.,17.2,2.844909384,mg/L,,0,REGN2222,2,.,.,.,.,.,.,1,.,.,.,.,.,.,0,30,M,1,WHITE,1,NOT-HISPANIC-OR-LATINO,0,70.9,178.3,22.3,43.25,87.5,0.030833333,21,19.58333333
184,184,R2222-HV-1326-840002-035,840002035,54,REGN2222-3mg/kg-IM,IM1B,4,6,6,Day-8,7,6.9069,.,.,34.2,3.532225644,mg/L,,0,REGN2222,2,.,.,.,.,.,.,1,.,.,.,.,.,.,0,30,M,1,WHITE,1,NOT-HISPANIC-OR-LATINO,0,70.9,178.3,22.3,43.25,87.5,0.030833333,21,19.58333333
185,185,R2222-HV-1326-840002-035,840002035,54,REGN2222-3mg/kg-IM,IM1B,4,7,7,Day-15,14,13.866,.,.,31.6,3.453157121,mg/L,,0,REGN2222,2,.,.,.,.,.,.,1,.,.,.,.,.,.,0,30,M,1,WHITE,1,NOT-HISPANIC-OR-LATINO,0,70.9,178.3,22.3,43.25,87.5,0.030833333,21,19.58333333
186,186,R2222-HV-1326-840002-035,840002035,54,REGN2222-3mg/kg-IM,IM1B,4,9,9,Day-29,28,26.986,.,.,17.9,2.884800713,mg/L,,0,REGN2222,2,.,.,.,.,.,.,1,.,.,.,.,.,.,0,30,M,1,WHITE,1,NOT-HISPANIC-OR-LATINO,0,70.9,178.3,22.3,43.25,87.5,0.030833333,21,19.58333333
187,187,R2222-HV-1326-840002-035,840002035,54,REGN2222-3mg/kg-IM,IM1B,4,.,.,.,.,27,.,.,.,.,.,.,1,REGN2222,1,5,2.9619,mg/kg,210,mg,.,2,210,.,2.9619,210,.,.,1,30,M,1,WHITE,1,NOT-HISPANIC-OR-LATINO,0,70.9,178.3,22.3,43.25,87.5,0.030833333,21,19.58333333
188,188,R2222-HV-1326-840002-035,840002035,54,REGN2222-3mg/kg-IM,IM1B,4,10,10,Day-30,29,28,.,.,28.3,3.342861805,mg/L,,0,REGN2222,2,.,.,.,.,.,.,2,.,.,.,.,.,.,0,30,M,1,WHITE,1,NOT-HISPANIC-OR-LATINO,0,70.9,178.3,22.3,43.25,87.5,0.030833333,21,19.58333333
189,189,R2222-HV-1326-840002-035,840002035,54,REGN2222-3mg/kg-IM,IM1B,4,11,11,Day-31,30,28.917,.,.,30.7,3.424262655,mg/L,,0,REGN2222,2,.,.,.,.,.,.,2,.,.,.,.,.,.,0,30,M,1,WHITE,1,NOT-HISPANIC-OR-LATINO,0,70.9,178.3,22.3,43.25,87.5,0.030833333,21,19.58333333
190,190,R2222-HV-1326-840002-035,840002035,54,REGN2222-3mg/kg-IM,IM1B,4,12,12,Day-36,35,33.888,.,.,38,3.63758616,mg/L,,0,REGN2222,2,.,.,.,.,.,.,2,.,.,.,.,.,.,0,30,M,1,WHITE,1,NOT-HISPANIC-OR-LATINO,0,70.9,178.3,22.3,43.25,87.5,0.030833333,21,19.58333333
191,191,R2222-HV-1326-840002-035,840002035,54,REGN2222-3mg/kg-IM,IM1B,4,13,13,Day-43,42,40.905,.,.,35.3,3.563882964,mg/L,,0,REGN2222,2,.,.,.,.,.,.,2,.,.,.,.,.,.,0,30,M,1,WHITE,1,NOT-HISPANIC-OR-LATINO,0,70.9,178.3,22.3,43.25,87.5,0.030833333,21,19.58333333
192,192,R2222-HV-1326-840002-035,840002035,54,REGN2222-3mg/kg-IM,IM1B,4,14,14,Day-57,56,54.944,.,.,25.6,3.242592351,mg/L,,0,REGN2222,2,.,.,.,.,.,.,2,.,.,.,.,.,.,0,30,M,1,WHITE,1,NOT-HISPANIC-OR-LATINO,0,70.9,178.3,22.3,43.25,87.5,0.030833333,21,19.58333333
193,193,R2222-HV-1326-840002-035,840002035,54,REGN2222-3mg/kg-IM,IM1B,4,15,15,Day-85,84,82.91,.,.,14.4,2.667228207,mg/L,,0,REGN2222,2,.,.,.,.,.,.,2,.,.,.,.,.,.,0,30,M,1,WHITE,1,NOT-HISPANIC-OR-LATINO,0,70.9,178.3,22.3,43.25,87.5,0.030833333,21,19.58333333
194,194,R2222-HV-1326-840002-037,840002037,55,REGN2222-3mg/kg-IM,IM1B,4,.,.,.,.,0,.,.,.,.,.,.,1,REGN2222,1,5,3.0134,mg/kg,270,mg,.,1,270,.,3.0134,270,.,.,1,53,M,1,WHITE,1,NOT-HISPANIC-OR-LATINO,0,89.6,186.8,25.7,42.21428571,76.14285714,0.160714286,18.07142857,22.64285714
195,195,R2222-HV-1326-840002-037,840002037,55,REGN2222-3mg/kg-IM,IM1B,4,4,4,Day-2,1,1,.,.,2.92,1.071583616,mg/L,,0,REGN2222,2,.,.,.,.,.,.,1,.,.,.,.,.,.,0,53,M,1,WHITE,1,NOT-HISPANIC-OR-LATINO,0,89.6,186.8,25.7,42.21428571,76.14285714,0.160714286,18.07142857,22.64285714
196,196,R2222-HV-1326-840002-037,840002037,55,REGN2222-3mg/kg-IM,IM1B,4,5,5,Day-3,2,1.9167,.,.,21,3.044522438,mg/L,,0,REGN2222,2,.,.,.,.,.,.,1,.,.,.,.,.,.,0,53,M,1,WHITE,1,NOT-HISPANIC-OR-LATINO,0,89.6,186.8,25.7,42.21428571,76.14285714,0.160714286,18.07142857,22.64285714
197,197,R2222-HV-1326-840002-037,840002037,55,REGN2222-3mg/kg-IM,IM1B,4,6,6,Day-8,7,6.8438,.,.,36.4,3.594568775,mg/L,,0,REGN2222,2,.,.,.,.,.,.,1,.,.,.,.,.,.,0,53,M,1,WHITE,1,NOT-HISPANIC-OR-LATINO,0,89.6,186.8,25.7,42.21428571,76.14285714,0.160714286,18.07142857,22.64285714
198,198,R2222-HV-1326-840002-037,840002037,55,REGN2222-3mg/kg-IM,IM1B,4,7,7,Day-15,14,13.867,.,.,26.5,3.277144733,mg/L,,0,REGN2222,2,.,.,.,.,.,.,1,.,.,.,.,.,.,0,53,M,1,WHITE,1,NOT-HISPANIC-OR-LATINO,0,89.6,186.8,25.7,42.21428571,76.14285714,0.160714286,18.07142857,22.64285714
199,199,R2222-HV-1326-840002-037,840002037,55,REGN2222-3mg/kg-IM,IM1B,4,9,9,Day-29,28,26.986,.,.,22.7,3.122364924,mg/L,,0,REGN2222,2,.,.,.,.,.,.,1,.,.,.,.,.,.,0,53,M,1,WHITE,1,NOT-HISPANIC-OR-LATINO,0,89.6,186.8,25.7,42.21428571,76.14285714,0.160714286,18.07142857,22.64285714
200,200,R2222-HV-1326-840002-037,840002037,55,REGN2222-3mg/kg-IM,IM1B,4,.,.,.,.,27,.,.,.,.,.,.,1,REGN2222,1,5,3.0134,mg/kg,270,mg,.,2,270,.,3.0134,270,.,.,1,53,M,1,WHITE,1,NOT-HISPANIC-OR-LATINO,0,89.6,186.8,25.7,42.21428571,76.14285714,0.160714286,18.07142857,22.64285714
201,201,R2222-HV-1326-840002-037,840002037,55,REGN2222-3mg/kg-IM,IM1B,4,10,10,Day-30,29,28,.,.,30.2,3.407841924,mg/L,,0,REGN2222,2,.,.,.,.,.,.,2,.,.,.,.,.,.,0,53,M,1,WHITE,1,NOT-HISPANIC-OR-LATINO,0,89.6,186.8,25.7,42.21428571,76.14285714,0.160714286,18.07142857,22.64285714
202,202,R2222-HV-1326-840002-037,840002037,55,REGN2222-3mg/kg-IM,IM1B,4,11,11,Day-31,30,28.917,.,.,44,3.784189634,mg/L,,0,REGN2222,2,.,.,.,.,.,.,2,.,.,.,.,.,.,0,53,M,1,WHITE,1,NOT-HISPANIC-OR-LATINO,0,89.6,186.8,25.7,42.21428571,76.14285714,0.160714286,18.07142857,22.64285714
203,203,R2222-HV-1326-840002-037,840002037,55,REGN2222-3mg/kg-IM,IM1B,4,12,12,Day-36,35,33.934,.,.,44.2,3.788724789,mg/L,,0,REGN2222,2,.,.,.,.,.,.,2,.,.,.,.,.,.,0,53,M,1,WHITE,1,NOT-HISPANIC-OR-LATINO,0,89.6,186.8,25.7,42.21428571,76.14285714,0.160714286,18.07142857,22.64285714
204,204,R2222-HV-1326-840002-037,840002037,55,REGN2222-3mg/kg-IM,IM1B,4,13,13,Day-43,42,40.915,.,.,40.1,3.691376334,mg/L,,0,REGN2222,2,.,.,.,.,.,.,2,.,.,.,.,.,.,0,53,M,1,WHITE,1,NOT-HISPANIC-OR-LATINO,0,89.6,186.8,25.7,42.21428571,76.14285714,0.160714286,18.07142857,22.64285714
205,205,R2222-HV-1326-840002-037,840002037,55,REGN2222-3mg/kg-IM,IM1B,4,14,14,Day-57,56,54.909,.,.,31.3,3.443618098,mg/L,,0,REGN2222,2,.,.,.,.,.,.,2,.,.,.,.,.,.,0,53,M,1,WHITE,1,NOT-HISPANIC-OR-LATINO,0,89.6,186.8,25.7,42.21428571,76.14285714,0.160714286,18.07142857,22.64285714
206,206,R2222-HV-1326-840002-037,840002037,55,REGN2222-3mg/kg-IM,IM1B,4,15,15,Day-85,84,82.897,.,.,21.9,3.086486637,mg/L,,0,REGN2222,2,.,.,.,.,.,.,2,.,.,.,.,.,.,0,53,M,1,WHITE,1,NOT-HISPANIC-OR-LATINO,0,89.6,186.8,25.7,42.21428571,76.14285714,0.160714286,18.07142857,22.64285714
207,207,R2222-HV-1326-840002-037,840002037,55,REGN2222-3mg/kg-IM,IM1B,4,16,16,Day-113,112,109.97,.,.,12.4,2.517696473,mg/L,,0,REGN2222,2,.,.,.,.,.,.,2,.,.,.,.,.,.,0,53,M,1,WHITE,1,NOT-HISPANIC-OR-LATINO,0,89.6,186.8,25.7,42.21428571,76.14285714,0.160714286,18.07142857,22.64285714
208,208,R2222-HV-1326-840002-037,840002037,55,REGN2222-3mg/kg-IM,IM1B,4,17,17,Day-141,140,138.91,.,.,5.11,1.631199404,mg/L,,0,REGN2222,2,.,.,.,.,.,.,2,.,.,.,.,.,.,0,53,M,1,WHITE,1,NOT-HISPANIC-OR-LATINO,0,89.6,186.8,25.7,42.21428571,76.14285714,0.160714286,18.07142857,22.64285714
209,209,R2222-HV-1326-840002-038,840002038,56,REGN2222-3mg/kg-IM,IM1B,4,.,.,.,.,0,.,.,.,.,.,.,1,REGN2222,1,5,3.0265,mg/kg,240,mg,.,1,240,.,3.0265,240,.,.,1,40,F,0,WHITE,1,NOT-HISPANIC-OR-LATINO,0,79.3,166.2,28.7,41.57142857,78.64285714,0.112142857,14.92857143,15.07142857
210,210,R2222-HV-1326-840002-038,840002038,56,REGN2222-3mg/kg-IM,IM1B,4,4,4,Day-2,1,1,.,.,9.36,2.23644529,mg/L,,0,REGN2222,2,.,.,.,.,.,.,1,.,.,.,.,.,.,0,40,F,0,WHITE,1,NOT-HISPANIC-OR-LATINO,0,79.3,166.2,28.7,41.57142857,78.64285714,0.112142857,14.92857143,15.07142857
211,211,R2222-HV-1326-840002-038,840002038,56,REGN2222-3mg/kg-IM,IM1B,4,5,5,Day-3,2,1.9167,.,.,13.4,2.595254707,mg/L,,0,REGN2222,2,.,.,.,.,.,.,1,.,.,.,.,.,.,0,40,F,0,WHITE,1,NOT-HISPANIC-OR-LATINO,0,79.3,166.2,28.7,41.57142857,78.64285714,0.112142857,14.92857143,15.07142857
212,212,R2222-HV-1326-840002-038,840002038,56,REGN2222-3mg/kg-IM,IM1B,4,6,6,Day-8,7,6.9618,.,.,17.2,2.844909384,mg/L,,0,REGN2222,2,.,.,.,.,.,.,1,.,.,.,.,.,.,0,40,F,0,WHITE,1,NOT-HISPANIC-OR-LATINO,0,79.3,166.2,28.7,41.57142857,78.64285714,0.112142857,14.92857143,15.07142857
213,213,R2222-HV-1326-840002-038,840002038,56,REGN2222-3mg/kg-IM,IM1B,4,7,7,Day-15,14,13.901,.,.,14.4,2.667228207,mg/L,,0,REGN2222,2,.,.,.,.,.,.,1,.,.,.,.,.,.,0,40,F,0,WHITE,1,NOT-HISPANIC-OR-LATINO,0,79.3,166.2,28.7,41.57142857,78.64285714,0.112142857,14.92857143,15.07142857
214,214,R2222-HV-1326-840002-038,840002038,56,REGN2222-3mg/kg-IM,IM1B,4,9,9,Day-29,28,26.986,.,.,10.5,2.351375257,mg/L,,0,REGN2222,2,.,.,.,.,.,.,1,.,.,.,.,.,.,0,40,F,0,WHITE,1,NOT-HISPANIC-OR-LATINO,0,79.3,166.2,28.7,41.57142857,78.64285714,0.112142857,14.92857143,15.07142857
215,215,R2222-HV-1326-840002-038,840002038,56,REGN2222-3mg/kg-IM,IM1B,4,.,.,.,.,27,.,.,.,.,.,.,1,REGN2222,1,5,3.0265,mg/kg,240,mg,.,2,240,.,3.0265,240,.,.,1,40,F,0,WHITE,1,NOT-HISPANIC-OR-LATINO,0,79.3,166.2,28.7,41.57142857,78.64285714,0.112142857,14.92857143,15.07142857
216,216,R2222-HV-1326-840002-038,840002038,56,REGN2222-3mg/kg-IM,IM1B,4,10,10,Day-30,29,28,.,.,35.5,3.569532696,mg/L,,0,REGN2222,2,.,.,.,.,.,.,2,.,.,.,.,.,.,0,40,F,0,WHITE,1,NOT-HISPANIC-OR-LATINO,0,79.3,166.2,28.7,41.57142857,78.64285714,0.112142857,14.92857143,15.07142857
217,217,R2222-HV-1326-840002-038,840002038,56,REGN2222-3mg/kg-IM,IM1B,4,11,11,Day-31,30,28.917,.,.,58.8,4.074141855,mg/L,,0,REGN2222,2,.,.,.,.,.,.,2,.,.,.,.,.,.,0,40,F,0,WHITE,1,NOT-HISPANIC-OR-LATINO,0,79.3,166.2,28.7,41.57142857,78.64285714,0.112142857,14.92857143,15.07142857
218,218,R2222-HV-1326-840002-038,840002038,56,REGN2222-3mg/kg-IM,IM1B,4,12,12,Day-36,35,33.89,.,.,62.4,4.133565275,mg/L,,0,REGN2222,2,.,.,.,.,.,.,2,.,.,.,.,.,.,0,40,F,0,WHITE,1,NOT-HISPANIC-OR-LATINO,0,79.3,166.2,28.7,41.57142857,78.64285714,0.112142857,14.92857143,15.07142857
219,219,R2222-HV-1326-840002-038,840002038,56,REGN2222-3mg/kg-IM,IM1B,4,13,13,Day-43,42,40.894,.,.,41.9,3.735285827,mg/L,,0,REGN2222,2,.,.,.,.,.,.,2,.,.,.,.,.,.,0,40,F,0,WHITE,1,NOT-HISPANIC-OR-LATINO,0,79.3,166.2,28.7,41.57142857,78.64285714,0.112142857,14.92857143,15.07142857
220,220,R2222-HV-1326-840002-038,840002038,56,REGN2222-3mg/kg-IM,IM1B,4,14,14,Day-57,56,55.933,.,.,36.2,3.589059119,mg/L,,0,REGN2222,2,.,.,.,.,.,.,2,.,.,.,.,.,.,0,40,F,0,WHITE,1,NOT-HISPANIC-OR-LATINO,0,79.3,166.2,28.7,41.57142857,78.64285714,0.112142857,14.92857143,15.07142857
221,221,R2222-HV-1326-840002-038,840002038,56,REGN2222-3mg/kg-IM,IM1B,4,15,15,Day-85,84,82.948,.,.,21.9,3.086486637,mg/L,,0,REGN2222,2,.,.,.,.,.,.,2,.,.,.,.,.,.,0,40,F,0,WHITE,1,NOT-HISPANIC-OR-LATINO,0,79.3,166.2,28.7,41.57142857,78.64285714,0.112142857,14.92857143,15.07142857
222,222,R2222-HV-1326-840002-038,840002038,56,REGN2222-3mg/kg-IM,IM1B,4,16,16,Day-113,112,110.96,.,.,11.7,2.459588842,mg/L,,0,REGN2222,2,.,.,.,.,.,.,2,.,.,.,.,.,.,0,40,F,0,WHITE,1,NOT-HISPANIC-OR-LATINO,0,79.3,166.2,28.7,41.57142857,78.64285714,0.112142857,14.92857143,15.07142857
223,223,R2222-HV-1326-840002-038,840002038,56,REGN2222-3mg/kg-IM,IM1B,4,17,17,Day-141,140,138.95,.,.,7.61,2.029463172,mg/L,,0,REGN2222,2,.,.,.,.,.,.,2,.,.,.,.,.,.,0,40,F,0,WHITE,1,NOT-HISPANIC-OR-LATINO,0,79.3,166.2,28.7,41.57142857,78.64285714,0.112142857,14.92857143,15.07142857
224,224,R2222-HV-1326-840002-039,840002039,57,REGN2222-3mg/kg-IM,IM1B,4,.,.,.,.,0,.,.,.,.,.,.,1,REGN2222,1,5,3.1304,mg/kg,180,mg,.,1,180,.,3.1304,180,.,.,1,41,F,0,WHITE,1,HISPANIC-OR-LATINO,1,57.5,154.3,24.2,43.28571429,58.78571429,0.067857143,15.64285714,17.42857143
225,225,R2222-HV-1326-840002-039,840002039,57,REGN2222-3mg/kg-IM,IM1B,4,4,4,Day-2,1,1,.,.,2.1,0.741937345,mg/L,,0,REGN2222,2,.,.,.,.,.,.,1,.,.,.,.,.,.,0,41,F,0,WHITE,1,HISPANIC-OR-LATINO,1,57.5,154.3,24.2,43.28571429,58.78571429,0.067857143,15.64285714,17.42857143
226,226,R2222-HV-1326-840002-039,840002039,57,REGN2222-3mg/kg-IM,IM1B,4,5,5,Day-3,2,1.9167,.,.,9.17,2.215937286,mg/L,,0,REGN2222,2,.,.,.,.,.,.,1,.,.,.,.,.,.,0,41,F,0,WHITE,1,HISPANIC-OR-LATINO,1,57.5,154.3,24.2,43.28571429,58.78571429,0.067857143,15.64285714,17.42857143
227,227,R2222-HV-1326-840002-039,840002039,57,REGN2222-3mg/kg-IM,IM1B,4,6,6,Day-8,7,6.9583,.,.,23.1,3.139832618,mg/L,,0,REGN2222,2,.,.,.,.,.,.,1,.,.,.,.,.,.,0,41,F,0,WHITE,1,HISPANIC-OR-LATINO,1,57.5,154.3,24.2,43.28571429,58.78571429,0.067857143,15.64285714,17.42857143
228,228,R2222-HV-1326-840002-039,840002039,57,REGN2222-3mg/kg-IM,IM1B,4,7,7,Day-15,14,13.909,.,.,19.3,2.960105096,mg/L,,0,REGN2222,2,.,.,.,.,.,.,1,.,.,.,.,.,.,0,41,F,0,WHITE,1,HISPANIC-OR-LATINO,1,57.5,154.3,24.2,43.28571429,58.78571429,0.067857143,15.64285714,17.42857143
229,229,R2222-HV-1326-840002-039,840002039,57,REGN2222-3mg/kg-IM,IM1B,4,9,9,Day-29,28,26.986,.,.,12.3,2.509599262,mg/L,,0,REGN2222,2,.,.,.,.,.,.,1,.,.,.,.,.,.,0,41,F,0,WHITE,1,HISPANIC-OR-LATINO,1,57.5,154.3,24.2,43.28571429,58.78571429,0.067857143,15.64285714,17.42857143
230,230,R2222-HV-1326-840002-039,840002039,57,REGN2222-3mg/kg-IM,IM1B,4,.,.,.,.,27,.,.,.,.,.,.,1,REGN2222,1,5,3.1304,mg/kg,180,mg,.,2,180,.,3.1304,180,.,.,1,41,F,0,WHITE,1,HISPANIC-OR-LATINO,1,57.5,154.3,24.2,43.28571429,58.78571429,0.067857143,15.64285714,17.42857143
231,231,R2222-HV-1326-840002-039,840002039,57,REGN2222-3mg/kg-IM,IM1B,4,10,10,Day-30,29,28,.,.,28.6,3.353406718,mg/L,,0,REGN2222,2,.,.,.,.,.,.,2,.,.,.,.,.,.,0,41,F,0,WHITE,1,HISPANIC-OR-LATINO,1,57.5,154.3,24.2,43.28571429,58.78571429,0.067857143,15.64285714,17.42857143
232,232,R2222-HV-1326-840002-039,840002039,57,REGN2222-3mg/kg-IM,IM1B,4,11,11,Day-31,30,28.917,.,.,40.1,3.691376334,mg/L,,0,REGN2222,2,.,.,.,.,.,.,2,.,.,.,.,.,.,0,41,F,0,WHITE,1,HISPANIC-OR-LATINO,1,57.5,154.3,24.2,43.28571429,58.78571429,0.067857143,15.64285714,17.42857143
233,233,R2222-HV-1326-840002-039,840002039,57,REGN2222-3mg/kg-IM,IM1B,4,12,12,Day-36,35,33.942,.,.,42.5,3.749504076,mg/L,,0,REGN2222,2,.,.,.,.,.,.,2,.,.,.,.,.,.,0,41,F,0,WHITE,1,HISPANIC-OR-LATINO,1,57.5,154.3,24.2,43.28571429,58.78571429,0.067857143,15.64285714,17.42857143
234,234,R2222-HV-1326-840002-039,840002039,57,REGN2222-3mg/kg-IM,IM1B,4,13,13,Day-43,42,43.983,.,.,36.9,3.608211551,mg/L,,0,REGN2222,2,.,.,.,.,.,.,2,.,.,.,.,.,.,0,41,F,0,WHITE,1,HISPANIC-OR-LATINO,1,57.5,154.3,24.2,43.28571429,58.78571429,0.067857143,15.64285714,17.42857143
235,235,R2222-HV-1326-840002-039,840002039,57,REGN2222-3mg/kg-IM,IM1B,4,14,14,Day-57,56,54.962,.,.,32.6,3.484312288,mg/L,,0,REGN2222,2,.,.,.,.,.,.,2,.,.,.,.,.,.,0,41,F,0,WHITE,1,HISPANIC-OR-LATINO,1,57.5,154.3,24.2,43.28571429,58.78571429,0.067857143,15.64285714,17.42857143
236,236,R2222-HV-1326-840002-039,840002039,57,REGN2222-3mg/kg-IM,IM1B,4,15,15,Day-85,84,82.943,.,.,13.4,2.595254707,mg/L,,0,REGN2222,2,.,.,.,.,.,.,2,.,.,.,.,.,.,0,41,F,0,WHITE,1,HISPANIC-OR-LATINO,1,57.5,154.3,24.2,43.28571429,58.78571429,0.067857143,15.64285714,17.42857143
237,237,R2222-HV-1326-840002-039,840002039,57,REGN2222-3mg/kg-IM,IM1B,4,16,16,Day-113,112,110.95,.,.,8.2,2.104134154,mg/L,,0,REGN2222,2,.,.,.,.,.,.,2,.,.,.,.,.,.,0,41,F,0,WHITE,1,HISPANIC-OR-LATINO,1,57.5,154.3,24.2,43.28571429,58.78571429,0.067857143,15.64285714,17.42857143
238,238,R2222-HV-1326-840002-039,840002039,57,REGN2222-3mg/kg-IM,IM1B,4,17,17,Day-141,140,139.03,.,.,2.96,1.085189268,mg/L,,0,REGN2222,2,.,.,.,.,.,.,2,.,.,.,.,.,.,0,41,F,0,WHITE,1,HISPANIC-OR-LATINO,1,57.5,154.3,24.2,43.28571429,58.78571429,0.067857143,15.64285714,17.42857143
239,239,R2222-HV-1326-840002-040,840002040,58,REGN2222-3mg/kg-IM,IM1B,4,.,.,.,.,0,.,.,.,.,.,.,1,REGN2222,1,5,3.0341,mg/kg,240,mg,.,1,240,.,3.0341,240,.,.,1,55,F,0,BLACK,2,NOT-HISPANIC-OR-LATINO,0,79.1,161.4,30.4,40.28571429,76.14285714,0.06,13.21428571,15.35714286
240,240,R2222-HV-1326-840002-040,840002040,58,REGN2222-3mg/kg-IM,IM1B,4,4,4,Day-2,1,1,.,.,18.7,2.928523524,mg/L,,0,REGN2222,2,.,.,.,.,.,.,1,.,.,.,.,.,.,0,55,F,0,BLACK,2,NOT-HISPANIC-OR-LATINO,0,79.1,161.4,30.4,40.28571429,76.14285714,0.06,13.21428571,15.35714286
241,241,R2222-HV-1326-840002-040,840002040,58,REGN2222-3mg/kg-IM,IM1B,4,5,5,Day-3,2,1.9167,.,.,27,3.295836866,mg/L,,0,REGN2222,2,.,.,.,.,.,.,1,.,.,.,.,.,.,0,55,F,0,BLACK,2,NOT-HISPANIC-OR-LATINO,0,79.1,161.4,30.4,40.28571429,76.14285714,0.06,13.21428571,15.35714286
242,242,R2222-HV-1326-840002-040,840002040,58,REGN2222-3mg/kg-IM,IM1B,4,6,6,Day-8,7,6.8854,.,.,27.2,3.303216973,mg/L,,0,REGN2222,2,.,.,.,.,.,.,1,.,.,.,.,.,.,0,55,F,0,BLACK,2,NOT-HISPANIC-OR-LATINO,0,79.1,161.4,30.4,40.28571429,76.14285714,0.06,13.21428571,15.35714286
243,243,R2222-HV-1326-840002-040,840002040,58,REGN2222-3mg/kg-IM,IM1B,4,7,7,Day-15,14,13.888,.,.,19.9,2.990719732,mg/L,,0,REGN2222,2,.,.,.,.,.,.,1,.,.,.,.,.,.,0,55,F,0,BLACK,2,NOT-HISPANIC-OR-LATINO,0,79.1,161.4,30.4,40.28571429,76.14285714,0.06,13.21428571,15.35714286
244,244,R2222-HV-1326-840002-040,840002040,58,REGN2222-3mg/kg-IM,IM1B,4,9,9,Day-29,28,26.986,.,.,16.8,2.821378886,mg/L,,0,REGN2222,2,.,.,.,.,.,.,1,.,.,.,.,.,.,0,55,F,0,BLACK,2,NOT-HISPANIC-OR-LATINO,0,79.1,161.4,30.4,40.28571429,76.14285714,0.06,13.21428571,15.35714286
245,245,R2222-HV-1326-840002-040,840002040,58,REGN2222-3mg/kg-IM,IM1B,4,.,.,.,.,27,.,.,.,.,.,.,1,REGN2222,1,5,3.0341,mg/kg,240,mg,.,2,240,.,3.0341,240,.,.,1,55,F,0,BLACK,2,NOT-HISPANIC-OR-LATINO,0,79.1,161.4,30.4,40.28571429,76.14285714,0.06,13.21428571,15.35714286
246,246,R2222-HV-1326-840002-040,840002040,58,REGN2222-3mg/kg-IM,IM1B,4,10,10,Day-30,29,28.001,.,.,37.2,3.616308761,mg/L,,0,REGN2222,2,.,.,.,.,.,.,2,.,.,.,.,.,.,0,55,F,0,BLACK,2,NOT-HISPANIC-OR-LATINO,0,79.1,161.4,30.4,40.28571429,76.14285714,0.06,13.21428571,15.35714286
247,247,R2222-HV-1326-840002-040,840002040,58,REGN2222-3mg/kg-IM,IM1B,4,11,11,Day-31,30,28.917,.,.,42.1,3.740047741,mg/L,,0,REGN2222,2,.,.,.,.,.,.,2,.,.,.,.,.,.,0,55,F,0,BLACK,2,NOT-HISPANIC-OR-LATINO,0,79.1,161.4,30.4,40.28571429,76.14285714,0.06,13.21428571,15.35714286
248,248,R2222-HV-1326-840002-040,840002040,58,REGN2222-3mg/kg-IM,IM1B,4,12,12,Day-36,35,33.919,.,.,50.8,3.927896355,mg/L,,0,REGN2222,2,.,.,.,.,.,.,2,.,.,.,.,.,.,0,55,F,0,BLACK,2,NOT-HISPANIC-OR-LATINO,0,79.1,161.4,30.4,40.28571429,76.14285714,0.06,13.21428571,15.35714286
249,249,R2222-HV-1326-840002-040,840002040,58,REGN2222-3mg/kg-IM,IM1B,4,13,13,Day-43,42,40.885,.,.,43.2,3.765840495,mg/L,,0,REGN2222,2,.,.,.,.,.,.,2,.,.,.,.,.,.,0,55,F,0,BLACK,2,NOT-HISPANIC-OR-LATINO,0,79.1,161.4,30.4,40.28571429,76.14285714,0.06,13.21428571,15.35714286
250,250,R2222-HV-1326-840002-040,840002040,58,REGN2222-3mg/kg-IM,IM1B,4,14,14,Day-57,56,54.934,.,.,28.9,3.363841595,mg/L,,0,REGN2222,2,.,.,.,.,.,.,2,.,.,.,.,.,.,0,55,F,0,BLACK,2,NOT-HISPANIC-OR-LATINO,0,79.1,161.4,30.4,40.28571429,76.14285714,0.06,13.21428571,15.35714286
251,251,R2222-HV-1326-840002-040,840002040,58,REGN2222-3mg/kg-IM,IM1B,4,15,15,Day-85,84,82.904,.,.,13.9,2.63188884,mg/L,,0,REGN2222,2,.,.,.,.,.,.,2,.,.,.,.,.,.,0,55,F,0,BLACK,2,NOT-HISPANIC-OR-LATINO,0,79.1,161.4,30.4,40.28571429,76.14285714,0.06,13.21428571,15.35714286
252,252,R2222-HV-1326-840002-040,840002040,58,REGN2222-3mg/kg-IM,IM1B,4,16,16,Day-113,112,110.95,.,.,9.56,2.257587727,mg/L,,0,REGN2222,2,.,.,.,.,.,.,2,.,.,.,.,.,.,0,55,F,0,BLACK,2,NOT-HISPANIC-OR-LATINO,0,79.1,161.4,30.4,40.28571429,76.14285714,0.06,13.21428571,15.35714286
253,253,R2222-HV-1326-840002-040,840002040,58,REGN2222-3mg/kg-IM,IM1B,4,17,17,Day-141,140,138.96,.,.,3.66,1.297463147,mg/L,,0,REGN2222,2,.,.,.,.,.,.,2,.,.,.,.,.,.,0,55,F,0,BLACK,2,NOT-HISPANIC-OR-LATINO,0,79.1,161.4,30.4,40.28571429,76.14285714,0.06,13.21428571,15.35714286
254,254,R2222-HV-1326-840002-044,840002044,60,REGN2222-3mg/kg-IM,IM1B,4,.,.,.,.,0,.,.,.,.,.,.,1,REGN2222,1,5,3.008,mg/kg,225,mg,.,1,225,.,3.008,225,.,.,1,46,F,0,ASIAN,3,NOT-HISPANIC-OR-LATINO,0,74.8,166.3,27,41.71428571,69.07142857,0.129285714,11.14285714,16
255,255,R2222-HV-1326-840002-044,840002044,60,REGN2222-3mg/kg-IM,IM1B,4,4,4,Day-2,1,1,.,.,20.7,3.0301337,mg/L,,0,REGN2222,2,.,.,.,.,.,.,1,.,.,.,.,.,.,0,46,F,0,ASIAN,3,NOT-HISPANIC-OR-LATINO,0,74.8,166.3,27,41.71428571,69.07142857,0.129285714,11.14285714,16
256,256,R2222-HV-1326-840002-044,840002044,60,REGN2222-3mg/kg-IM,IM1B,4,5,5,Day-3,2,1.9167,.,.,30.2,3.407841924,mg/L,,0,REGN2222,2,.,.,.,.,.,.,1,.,.,.,.,.,.,0,46,F,0,ASIAN,3,NOT-HISPANIC-OR-LATINO,0,74.8,166.3,27,41.71428571,69.07142857,0.129285714,11.14285714,16
257,257,R2222-HV-1326-840002-044,840002044,60,REGN2222-3mg/kg-IM,IM1B,4,6,6,Day-8,7,6.8875,.,.,30,3.401197382,mg/L,,0,REGN2222,2,.,.,.,.,.,.,1,.,.,.,.,.,.,0,46,F,0,ASIAN,3,NOT-HISPANIC-OR-LATINO,0,74.8,166.3,27,41.71428571,69.07142857,0.129285714,11.14285714,16
258,258,R2222-HV-1326-840002-044,840002044,60,REGN2222-3mg/kg-IM,IM1B,4,7,7,Day-15,14,13.897,.,.,22.2,3.100092289,mg/L,,0,REGN2222,2,.,.,.,.,.,.,1,.,.,.,.,.,.,0,46,F,0,ASIAN,3,NOT-HISPANIC-OR-LATINO,0,74.8,166.3,27,41.71428571,69.07142857,0.129285714,11.14285714,16
259,259,R2222-HV-1326-840002-044,840002044,60,REGN2222-3mg/kg-IM,IM1B,4,9,9,Day-29,28,26.989,.,.,19,2.944438979,mg/L,,0,REGN2222,2,.,.,.,.,.,.,1,.,.,.,.,.,.,0,46,F,0,ASIAN,3,NOT-HISPANIC-OR-LATINO,0,74.8,166.3,27,41.71428571,69.07142857,0.129285714,11.14285714,16
260,260,R2222-HV-1326-840002-044,840002044,60,REGN2222-3mg/kg-IM,IM1B,4,.,.,.,.,27,.,.,.,.,.,.,1,REGN2222,1,5,3.008,mg/kg,225,mg,.,2,225,.,3.008,225,.,.,1,46,F,0,ASIAN,3,NOT-HISPANIC-OR-LATINO,0,74.8,166.3,27,41.71428571,69.07142857,0.129285714,11.14285714,16
261,261,R2222-HV-1326-840002-044,840002044,60,REGN2222-3mg/kg-IM,IM1B,4,10,10,Day-30,29,28.004,.,.,38.4,3.64805746,mg/L,,0,REGN2222,2,.,.,.,.,.,.,2,.,.,.,.,.,.,0,46,F,0,ASIAN,3,NOT-HISPANIC-OR-LATINO,0,74.8,166.3,27,41.71428571,69.07142857,0.129285714,11.14285714,16
262,262,R2222-HV-1326-840002-044,840002044,60,REGN2222-3mg/kg-IM,IM1B,4,12,12,Day-36,35,33.933,.,.,64.3,4.163559631,mg/L,,0,REGN2222,2,.,.,.,.,.,.,2,.,.,.,.,.,.,0,46,F,0,ASIAN,3,NOT-HISPANIC-OR-LATINO,0,74.8,166.3,27,41.71428571,69.07142857,0.129285714,11.14285714,16
263,263,R2222-HV-1326-840002-044,840002044,60,REGN2222-3mg/kg-IM,IM1B,4,13,13,Day-43,42,40.902,.,.,61.7,4.122283931,mg/L,,0,REGN2222,2,.,.,.,.,.,.,2,.,.,.,.,.,.,0,46,F,0,ASIAN,3,NOT-HISPANIC-OR-LATINO,0,74.8,166.3,27,41.71428571,69.07142857,0.129285714,11.14285714,16
264,264,R2222-HV-1326-840002-044,840002044,60,REGN2222-3mg/kg-IM,IM1B,4,14,14,Day-57,56,54.956,.,.,33.9,3.523415014,mg/L,,0,REGN2222,2,.,.,.,.,.,.,2,.,.,.,.,.,.,0,46,F,0,ASIAN,3,NOT-HISPANIC-OR-LATINO,0,74.8,166.3,27,41.71428571,69.07142857,0.129285714,11.14285714,16
265,265,R2222-HV-1326-840002-044,840002044,60,REGN2222-3mg/kg-IM,IM1B,4,15,15,Day-85,84,82.907,.,.,15,2.708050201,mg/L,,0,REGN2222,2,.,.,.,.,.,.,2,.,.,.,.,.,.,0,46,F,0,ASIAN,3,NOT-HISPANIC-OR-LATINO,0,74.8,166.3,27,41.71428571,69.07142857,0.129285714,11.14285714,16
266,266,R2222-HV-1326-840002-044,840002044,60,REGN2222-3mg/kg-IM,IM1B,4,16,16,Day-113,112,110.94,.,.,8.21,2.105352923,mg/L,,0,REGN2222,2,.,.,.,.,.,.,2,.,.,.,.,.,.,0,46,F,0,ASIAN,3,NOT-HISPANIC-OR-LATINO,0,74.8,166.3,27,41.71428571,69.07142857,0.129285714,11.14285714,16
267,267,R2222-HV-1326-840002-044,840002044,60,REGN2222-3mg/kg-IM,IM1B,4,17,17,Day-141,140,138.92,.,.,2.9,1.064710737,mg/L,,0,REGN2222,2,.,.,.,.,.,.,2,.,.,.,.,.,.,0,46,F,0,ASIAN,3,NOT-HISPANIC-OR-LATINO,0,74.8,166.3,27,41.71428571,69.07142857,0.129285714,11.14285714,16
268,268,R2222-HV-1326-840002-046,840002046,61,REGN2222-3mg/kg-IM,IM1B,4,.,.,.,.,0,.,.,.,.,.,.,1,REGN2222,1,5,3.022,mg/kg,165,mg,.,1,165,.,3.022,165,.,.,1,49,F,0,WHITE,1,NOT-HISPANIC-OR-LATINO,0,54.6,157.9,21.9,41.5,58.78571429,0.347142857,16.92857143,24.07142857
269,269,R2222-HV-1326-840002-046,840002046,61,REGN2222-3mg/kg-IM,IM1B,4,4,4,Day-2,1,1,.,.,5.98,1.788420568,mg/L,,0,REGN2222,2,.,.,.,.,.,.,1,.,.,.,.,.,.,0,49,F,0,WHITE,1,NOT-HISPANIC-OR-LATINO,0,54.6,157.9,21.9,41.5,58.78571429,0.347142857,16.92857143,24.07142857
270,270,R2222-HV-1326-840002-046,840002046,61,REGN2222-3mg/kg-IM,IM1B,4,5,5,Day-3,2,1.9167,.,.,26.6,3.280911216,mg/L,,0,REGN2222,2,.,.,.,.,.,.,1,.,.,.,.,.,.,0,49,F,0,WHITE,1,NOT-HISPANIC-OR-LATINO,0,54.6,157.9,21.9,41.5,58.78571429,0.347142857,16.92857143,24.07142857
271,271,R2222-HV-1326-840002-046,840002046,61,REGN2222-3mg/kg-IM,IM1B,4,6,6,Day-8,7,6.9264,.,.,32.1,3.46885603,mg/L,,0,REGN2222,2,.,.,.,.,.,.,1,.,.,.,.,.,.,0,49,F,0,WHITE,1,NOT-HISPANIC-OR-LATINO,0,54.6,157.9,21.9,41.5,58.78571429,0.347142857,16.92857143,24.07142857
272,272,R2222-HV-1326-840002-046,840002046,61,REGN2222-3mg/kg-IM,IM1B,4,7,7,Day-15,14,13.892,.,.,23.2,3.144152279,mg/L,,0,REGN2222,2,.,.,.,.,.,.,1,.,.,.,.,.,.,0,49,F,0,WHITE,1,NOT-HISPANIC-OR-LATINO,0,54.6,157.9,21.9,41.5,58.78571429,0.347142857,16.92857143,24.07142857
273,273,R2222-HV-1326-840002-046,840002046,61,REGN2222-3mg/kg-IM,IM1B,4,9,9,Day-29,28,26.988,.,.,20.4,3.015534901,mg/L,,0,REGN2222,2,.,.,.,.,.,.,1,.,.,.,.,.,.,0,49,F,0,WHITE,1,NOT-HISPANIC-OR-LATINO,0,54.6,157.9,21.9,41.5,58.78571429,0.347142857,16.92857143,24.07142857
274,274,R2222-HV-1326-840002-046,840002046,61,REGN2222-3mg/kg-IM,IM1B,4,.,.,.,.,27,.,.,.,.,.,.,1,REGN2222,1,5,3.022,mg/kg,165,mg,.,2,165,.,3.022,165,.,.,1,49,F,0,WHITE,1,NOT-HISPANIC-OR-LATINO,0,54.6,157.9,21.9,41.5,58.78571429,0.347142857,16.92857143,24.07142857
275,275,R2222-HV-1326-840002-046,840002046,61,REGN2222-3mg/kg-IM,IM1B,4,10,10,Day-30,29,28,.,.,36.8,3.605497845,mg/L,,0,REGN2222,2,.,.,.,.,.,.,2,.,.,.,.,.,.,0,49,F,0,WHITE,1,NOT-HISPANIC-OR-LATINO,0,54.6,157.9,21.9,41.5,58.78571429,0.347142857,16.92857143,24.07142857
276,276,R2222-HV-1326-840002-046,840002046,61,REGN2222-3mg/kg-IM,IM1B,4,12,12,Day-36,35,33.845,.,.,35.8,3.577947893,mg/L,,0,REGN2222,2,.,.,.,.,.,.,2,.,.,.,.,.,.,0,49,F,0,WHITE,1,NOT-HISPANIC-OR-LATINO,0,54.6,157.9,21.9,41.5,58.78571429,0.347142857,16.92857143,24.07142857
277,277,R2222-HV-1326-840002-046,840002046,61,REGN2222-3mg/kg-IM,IM1B,4,13,13,Day-43,42,40.942,.,.,31.5,3.449987546,mg/L,,0,REGN2222,2,.,.,.,.,.,.,2,.,.,.,.,.,.,0,49,F,0,WHITE,1,NOT-HISPANIC-OR-LATINO,0,54.6,157.9,21.9,41.5,58.78571429,0.347142857,16.92857143,24.07142857
278,278,R2222-HV-1326-840002-046,840002046,61,REGN2222-3mg/kg-IM,IM1B,4,14,14,Day-57,56,54.937,.,.,30.4,3.414442608,mg/L,,0,REGN2222,2,.,.,.,.,.,.,2,.,.,.,.,.,.,0,49,F,0,WHITE,1,NOT-HISPANIC-OR-LATINO,0,54.6,157.9,21.9,41.5,58.78571429,0.347142857,16.92857143,24.07142857
279,279,R2222-HV-1326-840002-046,840002046,61,REGN2222-3mg/kg-IM,IM1B,4,15,15,Day-85,84,82.919,.,.,17.3,2.850706502,mg/L,,0,REGN2222,2,.,.,.,.,.,.,2,.,.,.,.,.,.,0,49,F,0,WHITE,1,NOT-HISPANIC-OR-LATINO,0,54.6,157.9,21.9,41.5,58.78571429,0.347142857,16.92857143,24.07142857
280,280,R2222-HV-1326-840002-046,840002046,61,REGN2222-3mg/kg-IM,IM1B,4,16,16,Day-113,112,110.93,.,.,9.11,2.209372711,mg/L,,0,REGN2222,2,.,.,.,.,.,.,2,.,.,.,.,.,.,0,49,F,0,WHITE,1,NOT-HISPANIC-OR-LATINO,0,54.6,157.9,21.9,41.5,58.78571429,0.347142857,16.92857143,24.07142857
281,281,R2222-HV-1326-840002-046,840002046,61,REGN2222-3mg/kg-IM,IM1B,4,17,17,Day-141,140,138.92,.,.,6.34,1.846878768,mg/L,,0,REGN2222,2,.,.,.,.,.,.,2,.,.,.,.,.,.,0,49,F,0,WHITE,1,NOT-HISPANIC-OR-LATINO,0,54.6,157.9,21.9,41.5,58.78571429,0.347142857,16.92857143,24.07142857
282,282,R2222-HV-1326-840002-047,840002047,62,REGN2222-3mg/kg-IM,IM1B,4,.,.,.,.,0,.,.,.,.,.,.,1,REGN2222,1,5,3.1196,mg/kg,180,mg,.,1,180,.,3.1196,180,.,.,1,56,F,0,WHITE,1,NOT-HISPANIC-OR-LATINO,0,57.7,159.3,22.7,43.14285714,66.5,0.07,25.5,20.92857143
283,283,R2222-HV-1326-840002-047,840002047,62,REGN2222-3mg/kg-IM,IM1B,4,4,4,Day-2,1,1,.,.,11.9,2.4765384,mg/L,,0,REGN2222,2,.,.,.,.,.,.,1,.,.,.,.,.,.,0,56,F,0,WHITE,1,NOT-HISPANIC-OR-LATINO,0,57.7,159.3,22.7,43.14285714,66.5,0.07,25.5,20.92857143
284,284,R2222-HV-1326-840002-047,840002047,62,REGN2222-3mg/kg-IM,IM1B,4,5,5,Day-3,2,1.9167,.,.,20.5,3.020424886,mg/L,,0,REGN2222,2,.,.,.,.,.,.,1,.,.,.,.,.,.,0,56,F,0,WHITE,1,NOT-HISPANIC-OR-LATINO,0,57.7,159.3,22.7,43.14285714,66.5,0.07,25.5,20.92857143
285,285,R2222-HV-1326-840002-047,840002047,62,REGN2222-3mg/kg-IM,IM1B,4,6,6,Day-8,7,6.9097,.,.,32.3,3.47506723,mg/L,,0,REGN2222,2,.,.,.,.,.,.,1,.,.,.,.,.,.,0,56,F,0,WHITE,1,NOT-HISPANIC-OR-LATINO,0,57.7,159.3,22.7,43.14285714,66.5,0.07,25.5,20.92857143
286,286,R2222-HV-1326-840002-047,840002047,62,REGN2222-3mg/kg-IM,IM1B,4,7,7,Day-15,14,13.887,.,.,30.4,3.414442608,mg/L,,0,REGN2222,2,.,.,.,.,.,.,1,.,.,.,.,.,.,0,56,F,0,WHITE,1,NOT-HISPANIC-OR-LATINO,0,57.7,159.3,22.7,43.14285714,66.5,0.07,25.5,20.92857143
287,287,R2222-HV-1326-840002-047,840002047,62,REGN2222-3mg/kg-IM,IM1B,4,9,9,Day-29,28,26.986,.,.,21.4,3.063390922,mg/L,,0,REGN2222,2,.,.,.,.,.,.,1,.,.,.,.,.,.,0,56,F,0,WHITE,1,NOT-HISPANIC-OR-LATINO,0,57.7,159.3,22.7,43.14285714,66.5,0.07,25.5,20.92857143
288,288,R2222-HV-1326-840002-047,840002047,62,REGN2222-3mg/kg-IM,IM1B,4,.,.,.,.,27,.,.,.,.,.,.,1,REGN2222,1,5,2.8596,mg/kg,165,mg,.,2,165,.,2.8596,165,.,.,1,56,F,0,WHITE,1,NOT-HISPANIC-OR-LATINO,0,57.7,159.3,22.7,43.14285714,66.5,0.07,25.5,20.92857143
289,289,R2222-HV-1326-840002-047,840002047,62,REGN2222-3mg/kg-IM,IM1B,4,10,10,Day-30,29,28,.,.,31.8,3.45946629,mg/L,,0,REGN2222,2,.,.,.,.,.,.,2,.,.,.,.,.,.,0,56,F,0,WHITE,1,NOT-HISPANIC-OR-LATINO,0,57.7,159.3,22.7,43.14285714,66.5,0.07,25.5,20.92857143
290,290,R2222-HV-1326-840002-047,840002047,62,REGN2222-3mg/kg-IM,IM1B,4,11,11,Day-31,30,28.917,.,.,42.3,3.744787086,mg/L,,0,REGN2222,2,.,.,.,.,.,.,2,.,.,.,.,.,.,0,56,F,0,WHITE,1,NOT-HISPANIC-OR-LATINO,0,57.7,159.3,22.7,43.14285714,66.5,0.07,25.5,20.92857143
291,291,R2222-HV-1326-840002-047,840002047,62,REGN2222-3mg/kg-IM,IM1B,4,12,12,Day-36,35,33.914,.,.,54.2,3.992680908,mg/L,,0,REGN2222,2,.,.,.,.,.,.,2,.,.,.,.,.,.,0,56,F,0,WHITE,1,NOT-HISPANIC-OR-LATINO,0,57.7,159.3,22.7,43.14285714,66.5,0.07,25.5,20.92857143
292,292,R2222-HV-1326-840002-047,840002047,62,REGN2222-3mg/kg-IM,IM1B,4,13,13,Day-43,42,40.859,.,.,49.8,3.908014984,mg/L,,0,REGN2222,2,.,.,.,.,.,.,2,.,.,.,.,.,.,0,56,F,0,WHITE,1,NOT-HISPANIC-OR-LATINO,0,57.7,159.3,22.7,43.14285714,66.5,0.07,25.5,20.92857143
293,293,R2222-HV-1326-840002-047,840002047,62,REGN2222-3mg/kg-IM,IM1B,4,14,14,Day-57,56,54.933,.,.,40.4,3.698829785,mg/L,,0,REGN2222,2,.,.,.,.,.,.,2,.,.,.,.,.,.,0,56,F,0,WHITE,1,NOT-HISPANIC-OR-LATINO,0,57.7,159.3,22.7,43.14285714,66.5,0.07,25.5,20.92857143
294,294,R2222-HV-1326-840002-047,840002047,62,REGN2222-3mg/kg-IM,IM1B,4,15,15,Day-85,84,82.884,.,.,23.6,3.161246712,mg/L,,0,REGN2222,2,.,.,.,.,.,.,2,.,.,.,.,.,.,0,56,F,0,WHITE,1,NOT-HISPANIC-OR-LATINO,0,57.7,159.3,22.7,43.14285714,66.5,0.07,25.5,20.92857143
295,295,R2222-HV-1326-840002-047,840002047,62,REGN2222-3mg/kg-IM,IM1B,4,16,16,Day-113,112,111.96,.,.,17,2.833213344,mg/L,,0,REGN2222,2,.,.,.,.,.,.,2,.,.,.,.,.,.,0,56,F,0,WHITE,1,NOT-HISPANIC-OR-LATINO,0,57.7,159.3,22.7,43.14285714,66.5,0.07,25.5,20.92857143
296,296,R2222-HV-1326-840002-047,840002047,62,REGN2222-3mg/kg-IM,IM1B,4,17,17,Day-141,140,138.9,.,.,12.9,2.557227311,mg/L,,0,REGN2222,2,.,.,.,.,.,.,2,.,.,.,.,.,.,0,56,F,0,WHITE,1,NOT-HISPANIC-OR-LATINO,0,57.7,159.3,22.7,43.14285714,66.5,0.07,25.5,20.92857143
297,297,R2222-HV-1326-840002-048,840002048,63,REGN2222-3mg/kg-IM,IM1B,4,.,.,.,.,0,.,.,.,.,.,.,1,REGN2222,1,5,2.9448,mg/kg,240,mg,.,1,240,.,2.9448,240,.,.,1,44,F,0,WHITE,1,NOT-HISPANIC-OR-LATINO,0,81.5,172.7,27.3,42.85714286,80.5,0.115714286,26,22.07142857
298,298,R2222-HV-1326-840002-048,840002048,63,REGN2222-3mg/kg-IM,IM1B,4,4,4,Day-2,1,1,.,.,5.64,1.729884066,mg/L,,0,REGN2222,2,.,.,.,.,.,.,1,.,.,.,.,.,.,0,44,F,0,WHITE,1,NOT-HISPANIC-OR-LATINO,0,81.5,172.7,27.3,42.85714286,80.5,0.115714286,26,22.07142857
299,299,R2222-HV-1326-840002-048,840002048,63,REGN2222-3mg/kg-IM,IM1B,4,5,5,Day-3,2,1.9167,.,.,8.86,2.181546765,mg/L,,0,REGN2222,2,.,.,.,.,.,.,1,.,.,.,.,.,.,0,44,F,0,WHITE,1,NOT-HISPANIC-OR-LATINO,0,81.5,172.7,27.3,42.85714286,80.5,0.115714286,26,22.07142857
300,300,R2222-HV-1326-840002-048,840002048,63,REGN2222-3mg/kg-IM,IM1B,4,6,6,Day-8,7,6.9576,.,.,14,2.63905733,mg/L,,0,REGN2222,2,.,.,.,.,.,.,1,.,.,.,.,.,.,0,44,F,0,WHITE,1,NOT-HISPANIC-OR-LATINO,0,81.5,172.7,27.3,42.85714286,80.5,0.115714286,26,22.07142857
301,301,R2222-HV-1326-840002-048,840002048,63,REGN2222-3mg/kg-IM,IM1B,4,7,7,Day-15,14,13.912,.,.,13.9,2.63188884,mg/L,,0,REGN2222,2,.,.,.,.,.,.,1,.,.,.,.,.,.,0,44,F,0,WHITE,1,NOT-HISPANIC-OR-LATINO,0,81.5,172.7,27.3,42.85714286,80.5,0.115714286,26,22.07142857
302,302,R2222-HV-1326-840002-048,840002048,63,REGN2222-3mg/kg-IM,IM1B,4,9,9,Day-29,28,26.986,.,.,11.1,2.406945108,mg/L,,0,REGN2222,2,.,.,.,.,.,.,1,.,.,.,.,.,.,0,44,F,0,WHITE,1,NOT-HISPANIC-OR-LATINO,0,81.5,172.7,27.3,42.85714286,80.5,0.115714286,26,22.07142857
303,303,R2222-HV-1326-840002-048,840002048,63,REGN2222-3mg/kg-IM,IM1B,4,.,.,.,.,27,.,.,.,.,.,.,1,REGN2222,1,5,3.1288,mg/kg,255,mg,.,2,255,.,3.1288,255,.,.,1,44,F,0,WHITE,1,NOT-HISPANIC-OR-LATINO,0,81.5,172.7,27.3,42.85714286,80.5,0.115714286,26,22.07142857
304,304,R2222-HV-1326-840002-048,840002048,63,REGN2222-3mg/kg-IM,IM1B,4,10,10,Day-30,29,28,.,.,25.5,3.238678452,mg/L,,0,REGN2222,2,.,.,.,.,.,.,2,.,.,.,.,.,.,0,44,F,0,WHITE,1,NOT-HISPANIC-OR-LATINO,0,81.5,172.7,27.3,42.85714286,80.5,0.115714286,26,22.07142857
305,305,R2222-HV-1326-840002-048,840002048,63,REGN2222-3mg/kg-IM,IM1B,4,11,11,Day-31,30,28.917,.,.,35.3,3.563882964,mg/L,,0,REGN2222,2,.,.,.,.,.,.,2,.,.,.,.,.,.,0,44,F,0,WHITE,1,NOT-HISPANIC-OR-LATINO,0,81.5,172.7,27.3,42.85714286,80.5,0.115714286,26,22.07142857
306,306,R2222-HV-1326-840002-048,840002048,63,REGN2222-3mg/kg-IM,IM1B,4,12,12,Day-36,35,33.974,.,.,43.4,3.770459441,mg/L,,0,REGN2222,2,.,.,.,.,.,.,2,.,.,.,.,.,.,0,44,F,0,WHITE,1,NOT-HISPANIC-OR-LATINO,0,81.5,172.7,27.3,42.85714286,80.5,0.115714286,26,22.07142857
307,307,R2222-HV-1326-840002-048,840002048,63,REGN2222-3mg/kg-IM,IM1B,4,13,13,Day-43,42,40.968,.,.,38.4,3.64805746,mg/L,,0,REGN2222,2,.,.,.,.,.,.,2,.,.,.,.,.,.,0,44,F,0,WHITE,1,NOT-HISPANIC-OR-LATINO,0,81.5,172.7,27.3,42.85714286,80.5,0.115714286,26,22.07142857
308,308,R2222-HV-1326-840002-048,840002048,63,REGN2222-3mg/kg-IM,IM1B,4,14,14,Day-57,56,56.996,.,.,25,3.218875825,mg/L,,0,REGN2222,2,.,.,.,.,.,.,2,.,.,.,.,.,.,0,44,F,0,WHITE,1,NOT-HISPANIC-OR-LATINO,0,81.5,172.7,27.3,42.85714286,80.5,0.115714286,26,22.07142857
309,309,R2222-HV-1326-840002-048,840002048,63,REGN2222-3mg/kg-IM,IM1B,4,15,15,Day-85,84,82.936,.,.,16.5,2.803360381,mg/L,,0,REGN2222,2,.,.,.,.,.,.,2,.,.,.,.,.,.,0,44,F,0,WHITE,1,NOT-HISPANIC-OR-LATINO,0,81.5,172.7,27.3,42.85714286,80.5,0.115714286,26,22.07142857
310,310,R2222-HV-1326-840002-048,840002048,63,REGN2222-3mg/kg-IM,IM1B,4,16,16,Day-113,112,110.98,.,.,11.1,2.406945108,mg/L,,0,REGN2222,2,.,.,.,.,.,.,2,.,.,.,.,.,.,0,44,F,0,WHITE,1,NOT-HISPANIC-OR-LATINO,0,81.5,172.7,27.3,42.85714286,80.5,0.115714286,26,22.07142857
311,311,R2222-HV-1326-840002-048,840002048,63,REGN2222-3mg/kg-IM,IM1B,4,17,17,Day-141,140,138.97,.,.,7.4,2.00148,mg/L,,0,REGN2222,2,.,.,.,.,.,.,2,.,.,.,.,.,.,0,44,F,0,WHITE,1,NOT-HISPANIC-OR-LATINO,0,81.5,172.7,27.3,42.85714286,80.5,0.115714286,26,22.07142857
312,312,R2222-HV-1326-840002-050,840002050,64,REGN2222-3mg/kg-IM,IM1B,4,.,.,.,.,0,.,.,.,.,.,.,1,REGN2222,1,5,2.996,mg/kg,225,mg,.,1,225,.,2.996,225,.,.,1,18,M,1,WHITE,1,NOT-HISPANIC-OR-LATINO,0,75.1,183.1,22.4,48.9,104.2,0.08,11.2,15.2
313,313,R2222-HV-1326-840002-050,840002050,64,REGN2222-3mg/kg-IM,IM1B,4,4,4,Day-2,1,0.99444,.,.,13.4,2.595254707,mg/L,,0,REGN2222,2,.,.,.,.,.,.,1,.,.,.,.,.,.,0,18,M,1,WHITE,1,NOT-HISPANIC-OR-LATINO,0,75.1,183.1,22.4,48.9,104.2,0.08,11.2,15.2
314,314,R2222-HV-1326-840002-050,840002050,64,REGN2222-3mg/kg-IM,IM1B,4,5,5,Day-3,2,1.9111,.,.,16.5,2.803360381,mg/L,,0,REGN2222,2,.,.,.,.,.,.,1,.,.,.,.,.,.,0,18,M,1,WHITE,1,NOT-HISPANIC-OR-LATINO,0,75.1,183.1,22.4,48.9,104.2,0.08,11.2,15.2
315,315,R2222-HV-1326-840002-050,840002050,64,REGN2222-3mg/kg-IM,IM1B,4,6,6,Day-8,7,6.9146,.,.,23.4,3.152736022,mg/L,,0,REGN2222,2,.,.,.,.,.,.,1,.,.,.,.,.,.,0,18,M,1,WHITE,1,NOT-HISPANIC-OR-LATINO,0,75.1,183.1,22.4,48.9,104.2,0.08,11.2,15.2
316,316,R2222-HV-1326-840002-050,840002050,64,REGN2222-3mg/kg-IM,IM1B,4,7,7,Day-15,14,13.889,.,.,24.1,3.18221184,mg/L,,0,REGN2222,2,.,.,.,.,.,.,1,.,.,.,.,.,.,0,18,M,1,WHITE,1,NOT-HISPANIC-OR-LATINO,0,75.1,183.1,22.4,48.9,104.2,0.08,11.2,15.2
317,317,R2222-HV-1326-840002-050,840002050,64,REGN2222-3mg/kg-IM,IM1B,4,9,9,Day-29,28,26.981,.,.,20.3,3.010620886,mg/L,,0,REGN2222,2,.,.,.,.,.,.,1,.,.,.,.,.,.,0,18,M,1,WHITE,1,NOT-HISPANIC-OR-LATINO,0,75.1,183.1,22.4,48.9,104.2,0.08,11.2,15.2
318,318,R2222-HV-1326-840002-050,840002050,64,REGN2222-3mg/kg-IM,IM1B,4,.,.,.,.,26.994,.,.,.,.,.,.,1,REGN2222,1,5,2.996,mg/kg,225,mg,.,2,225,.,2.996,225,.,.,1,18,M,1,WHITE,1,NOT-HISPANIC-OR-LATINO,0,75.1,183.1,22.4,48.9,104.2,0.08,11.2,15.2
319,319,R2222-HV-1326-840002-050,840002050,64,REGN2222-3mg/kg-IM,IM1B,4,10,10,Day-30,29,27.994,.,.,28.7,3.356897123,mg/L,,0,REGN2222,2,.,.,.,.,.,.,2,.,.,.,.,.,.,0,18,M,1,WHITE,1,NOT-HISPANIC-OR-LATINO,0,75.1,183.1,22.4,48.9,104.2,0.08,11.2,15.2
320,320,R2222-HV-1326-840002-050,840002050,64,REGN2222-3mg/kg-IM,IM1B,4,11,11,Day-31,30,28.911,.,.,33.6,3.514526067,mg/L,,0,REGN2222,2,.,.,.,.,.,.,2,.,.,.,.,.,.,0,18,M,1,WHITE,1,NOT-HISPANIC-OR-LATINO,0,75.1,183.1,22.4,48.9,104.2,0.08,11.2,15.2
321,321,R2222-HV-1326-840002-050,840002050,64,REGN2222-3mg/kg-IM,IM1B,4,12,12,Day-36,35,33.93,.,.,41.8,3.73289634,mg/L,,0,REGN2222,2,.,.,.,.,.,.,2,.,.,.,.,.,.,0,18,M,1,WHITE,1,NOT-HISPANIC-OR-LATINO,0,75.1,183.1,22.4,48.9,104.2,0.08,11.2,15.2
322,322,R2222-HV-1326-840002-050,840002050,64,REGN2222-3mg/kg-IM,IM1B,4,998,998,ET,.,48.956,.,.,39.9,3.686376324,mg/L,,0,REGN2222,2,.,.,.,.,.,.,2,.,.,.,.,.,.,0,18,M,1,WHITE,1,NOT-HISPANIC-OR-LATINO,0,75.1,183.1,22.4,48.9,104.2,0.08,11.2,15.2
323,323,R2222-HV-1326-840002-056,840002056,66,REGN2222-3mg/kg-IM,IM1B,4,.,.,.,.,0,.,.,.,.,.,.,1,REGN2222,1,5,3.1858,mg/kg,180,mg,.,1,180,.,3.1858,180,.,.,1,24,F,0,WHITE,1,NOT-HISPANIC-OR-LATINO,0,56.5,157.3,22.8,40.35714286,65.21428571,0.060714286,13.64285714,13.92857143
324,324,R2222-HV-1326-840002-056,840002056,66,REGN2222-3mg/kg-IM,IM1B,4,4,4,Day-2,1,1,.,.,14.4,2.667228207,mg/L,,0,REGN2222,2,.,.,.,.,.,.,1,.,.,.,.,.,.,0,24,F,0,WHITE,1,NOT-HISPANIC-OR-LATINO,0,56.5,157.3,22.8,40.35714286,65.21428571,0.060714286,13.64285714,13.92857143
325,325,R2222-HV-1326-840002-056,840002056,66,REGN2222-3mg/kg-IM,IM1B,4,5,5,Day-3,2,1.9167,.,.,19.3,2.960105096,mg/L,,0,REGN2222,2,.,.,.,.,.,.,1,.,.,.,.,.,.,0,24,F,0,WHITE,1,NOT-HISPANIC-OR-LATINO,0,56.5,157.3,22.8,40.35714286,65.21428571,0.060714286,13.64285714,13.92857143
326,326,R2222-HV-1326-840002-056,840002056,66,REGN2222-3mg/kg-IM,IM1B,4,6,6,Day-8,7,6.9444,.,.,28.2,3.339321978,mg/L,,0,REGN2222,2,.,.,.,.,.,.,1,.,.,.,.,.,.,0,24,F,0,WHITE,1,NOT-HISPANIC-OR-LATINO,0,56.5,157.3,22.8,40.35714286,65.21428571,0.060714286,13.64285714,13.92857143
327,327,R2222-HV-1326-840002-056,840002056,66,REGN2222-3mg/kg-IM,IM1B,4,7,7,Day-15,14,13.909,.,.,25.3,3.230804396,mg/L,,0,REGN2222,2,.,.,.,.,.,.,1,.,.,.,.,.,.,0,24,F,0,WHITE,1,NOT-HISPANIC-OR-LATINO,0,56.5,157.3,22.8,40.35714286,65.21428571,0.060714286,13.64285714,13.92857143
328,328,R2222-HV-1326-840002-056,840002056,66,REGN2222-3mg/kg-IM,IM1B,4,9,9,Day-29,28,26.986,.,.,20.8,3.034952987,mg/L,,0,REGN2222,2,.,.,.,.,.,.,1,.,.,.,.,.,.,0,24,F,0,WHITE,1,NOT-HISPANIC-OR-LATINO,0,56.5,157.3,22.8,40.35714286,65.21428571,0.060714286,13.64285714,13.92857143
329,329,R2222-HV-1326-840002-056,840002056,66,REGN2222-3mg/kg-IM,IM1B,4,.,.,.,.,27,.,.,.,.,.,.,1,REGN2222,1,5,2.9204,mg/kg,165,mg,.,2,165,.,2.9204,165,.,.,1,24,F,0,WHITE,1,NOT-HISPANIC-OR-LATINO,0,56.5,157.3,22.8,40.35714286,65.21428571,0.060714286,13.64285714,13.92857143
330,330,R2222-HV-1326-840002-056,840002056,66,REGN2222-3mg/kg-IM,IM1B,4,10,10,Day-30,29,28,.,.,31.1,3.437207819,mg/L,,0,REGN2222,2,.,.,.,.,.,.,2,.,.,.,.,.,.,0,24,F,0,WHITE,1,NOT-HISPANIC-OR-LATINO,0,56.5,157.3,22.8,40.35714286,65.21428571,0.060714286,13.64285714,13.92857143
331,331,R2222-HV-1326-840002-056,840002056,66,REGN2222-3mg/kg-IM,IM1B,4,11,11,Day-31,30,28.917,.,.,36.4,3.594568775,mg/L,,0,REGN2222,2,.,.,.,.,.,.,2,.,.,.,.,.,.,0,24,F,0,WHITE,1,NOT-HISPANIC-OR-LATINO,0,56.5,157.3,22.8,40.35714286,65.21428571,0.060714286,13.64285714,13.92857143
332,332,R2222-HV-1326-840002-056,840002056,66,REGN2222-3mg/kg-IM,IM1B,4,12,12,Day-36,35,33.95,.,.,47.4,3.858622229,mg/L,,0,REGN2222,2,.,.,.,.,.,.,2,.,.,.,.,.,.,0,24,F,0,WHITE,1,NOT-HISPANIC-OR-LATINO,0,56.5,157.3,22.8,40.35714286,65.21428571,0.060714286,13.64285714,13.92857143
333,333,R2222-HV-1326-840002-056,840002056,66,REGN2222-3mg/kg-IM,IM1B,4,13,13,Day-43,42,40.948,.,.,37.3,3.618993327,mg/L,,0,REGN2222,2,.,.,.,.,.,.,2,.,.,.,.,.,.,0,24,F,0,WHITE,1,NOT-HISPANIC-OR-LATINO,0,56.5,157.3,22.8,40.35714286,65.21428571,0.060714286,13.64285714,13.92857143
334,334,R2222-HV-1326-840002-056,840002056,66,REGN2222-3mg/kg-IM,IM1B,4,14,14,Day-57,56,54.957,.,.,27.9,3.328626689,mg/L,,0,REGN2222,2,.,.,.,.,.,.,2,.,.,.,.,.,.,0,24,F,0,WHITE,1,NOT-HISPANIC-OR-LATINO,0,56.5,157.3,22.8,40.35714286,65.21428571,0.060714286,13.64285714,13.92857143
335,335,R2222-HV-1326-840002-056,840002056,66,REGN2222-3mg/kg-IM,IM1B,4,15,15,Day-85,84,82.94,.,.,17.1,2.839078464,mg/L,,0,REGN2222,2,.,.,.,.,.,.,2,.,.,.,.,.,.,0,24,F,0,WHITE,1,NOT-HISPANIC-OR-LATINO,0,56.5,157.3,22.8,40.35714286,65.21428571,0.060714286,13.64285714,13.92857143
336,336,R2222-HV-1326-840002-056,840002056,66,REGN2222-3mg/kg-IM,IM1B,4,16,16,Day-113,112,110.97,.,.,10.8,2.379546134,mg/L,,0,REGN2222,2,.,.,.,.,.,.,2,.,.,.,.,.,.,0,24,F,0,WHITE,1,NOT-HISPANIC-OR-LATINO,0,56.5,157.3,22.8,40.35714286,65.21428571,0.060714286,13.64285714,13.92857143
337,337,R2222-HV-1326-840002-056,840002056,66,REGN2222-3mg/kg-IM,IM1B,4,17,17,Day-141,140,138.95,.,.,5.82,1.761300262,mg/L,,0,REGN2222,2,.,.,.,.,.,.,2,.,.,.,.,.,.,0,24,F,0,WHITE,1,NOT-HISPANIC-OR-LATINO,0,56.5,157.3,22.8,40.35714286,65.21428571,0.060714286,13.64285714,13.92857143
338,338,R2222-HV-1326-840003-002,840003002,83,REGN2222-3mg/kg-IM,IM1B,4,.,.,.,.,0,.,.,.,.,.,.,1,REGN2222,1,5,3.125,mg/kg,255,mg,.,1,255,.,3.125,255,.,.,1,37,M,1,BLACK,2,NOT-HISPANIC-OR-LATINO,0,81.6,175.5,26.5,43.8,113.8,0.08,26.46666667,30.86666667
339,339,R2222-HV-1326-840003-002,840003002,83,REGN2222-3mg/kg-IM,IM1B,4,4,4,Day-2,1,1,.,.,21.5,3.068052935,mg/L,,0,REGN2222,2,.,.,.,.,.,.,1,.,.,.,.,.,.,0,37,M,1,BLACK,2,NOT-HISPANIC-OR-LATINO,0,81.6,175.5,26.5,43.8,113.8,0.08,26.46666667,30.86666667
340,340,R2222-HV-1326-840003-002,840003002,83,REGN2222-3mg/kg-IM,IM1B,4,5,5,Day-3,2,2.0014,.,.,31.8,3.45946629,mg/L,,0,REGN2222,2,.,.,.,.,.,.,1,.,.,.,.,.,.,0,37,M,1,BLACK,2,NOT-HISPANIC-OR-LATINO,0,81.6,175.5,26.5,43.8,113.8,0.08,26.46666667,30.86666667
341,341,R2222-HV-1326-840003-002,840003002,83,REGN2222-3mg/kg-IM,IM1B,4,6,6,Day-8,7,6.95,.,.,44.2,3.788724789,mg/L,,0,REGN2222,2,.,.,.,.,.,.,1,.,.,.,.,.,.,0,37,M,1,BLACK,2,NOT-HISPANIC-OR-LATINO,0,81.6,175.5,26.5,43.8,113.8,0.08,26.46666667,30.86666667
342,342,R2222-HV-1326-840003-002,840003002,83,REGN2222-3mg/kg-IM,IM1B,4,7,7,Day-15,14,13.97,.,.,32.9,3.493472658,mg/L,,0,REGN2222,2,.,.,.,.,.,.,1,.,.,.,.,.,.,0,37,M,1,BLACK,2,NOT-HISPANIC-OR-LATINO,0,81.6,175.5,26.5,43.8,113.8,0.08,26.46666667,30.86666667
343,343,R2222-HV-1326-840003-002,840003002,83,REGN2222-3mg/kg-IM,IM1B,4,9,9,Day-29,28,27.993,.,.,22.1,3.095577609,mg/L,,0,REGN2222,2,.,.,.,.,.,.,1,.,.,.,.,.,.,0,37,M,1,BLACK,2,NOT-HISPANIC-OR-LATINO,0,81.6,175.5,26.5,43.8,113.8,0.08,26.46666667,30.86666667
344,344,R2222-HV-1326-840003-002,840003002,83,REGN2222-3mg/kg-IM,IM1B,4,.,.,.,.,28,.,.,.,.,.,.,1,REGN2222,1,5,3.125,mg/kg,255,mg,.,2,255,.,3.125,255,.,.,1,37,M,1,BLACK,2,NOT-HISPANIC-OR-LATINO,0,81.6,175.5,26.5,43.8,113.8,0.08,26.46666667,30.86666667
345,345,R2222-HV-1326-840003-002,840003002,83,REGN2222-3mg/kg-IM,IM1B,4,10,10,Day-30,29,29,.,.,37.1,3.61361697,mg/L,,0,REGN2222,2,.,.,.,.,.,.,2,.,.,.,.,.,.,0,37,M,1,BLACK,2,NOT-HISPANIC-OR-LATINO,0,81.6,175.5,26.5,43.8,113.8,0.08,26.46666667,30.86666667
346,346,R2222-HV-1326-840003-002,840003002,83,REGN2222-3mg/kg-IM,IM1B,4,11,11,Day-31,30,30,.,.,49.8,3.908014984,mg/L,,0,REGN2222,2,.,.,.,.,.,.,2,.,.,.,.,.,.,0,37,M,1,BLACK,2,NOT-HISPANIC-OR-LATINO,0,81.6,175.5,26.5,43.8,113.8,0.08,26.46666667,30.86666667
347,347,R2222-HV-1326-840003-002,840003002,83,REGN2222-3mg/kg-IM,IM1B,4,12,12,Day-36,35,34.992,.,.,61.6,4.120661871,mg/L,,0,REGN2222,2,.,.,.,.,.,.,2,.,.,.,.,.,.,0,37,M,1,BLACK,2,NOT-HISPANIC-OR-LATINO,0,81.6,175.5,26.5,43.8,113.8,0.08,26.46666667,30.86666667
348,348,R2222-HV-1326-840003-002,840003002,83,REGN2222-3mg/kg-IM,IM1B,4,13,13,Day-43,42,41.971,.,.,45.4,3.815512105,mg/L,,0,REGN2222,2,.,.,.,.,.,.,2,.,.,.,.,.,.,0,37,M,1,BLACK,2,NOT-HISPANIC-OR-LATINO,0,81.6,175.5,26.5,43.8,113.8,0.08,26.46666667,30.86666667
349,349,R2222-HV-1326-840003-002,840003002,83,REGN2222-3mg/kg-IM,IM1B,4,14,14,Day-57,56,56.012,.,.,25.9,3.254242969,mg/L,,0,REGN2222,2,.,.,.,.,.,.,2,.,.,.,.,.,.,0,37,M,1,BLACK,2,NOT-HISPANIC-OR-LATINO,0,81.6,175.5,26.5,43.8,113.8,0.08,26.46666667,30.86666667
350,350,R2222-HV-1326-840003-002,840003002,83,REGN2222-3mg/kg-IM,IM1B,4,15,15,Day-85,84,83.96,.,.,12.5,2.525728644,mg/L,,0,REGN2222,2,.,.,.,.,.,.,2,.,.,.,.,.,.,0,37,M,1,BLACK,2,NOT-HISPANIC-OR-LATINO,0,81.6,175.5,26.5,43.8,113.8,0.08,26.46666667,30.86666667
351,351,R2222-HV-1326-840003-002,840003002,83,REGN2222-3mg/kg-IM,IM1B,4,16,16,Day-113,112,111.95,.,.,6.98,1.943048917,mg/L,,0,REGN2222,2,.,.,.,.,.,.,2,.,.,.,.,.,.,0,37,M,1,BLACK,2,NOT-HISPANIC-OR-LATINO,0,81.6,175.5,26.5,43.8,113.8,0.08,26.46666667,30.86666667
352,352,R2222-HV-1326-840003-002,840003002,83,REGN2222-3mg/kg-IM,IM1B,4,17,17,Day-141,140,139.97,.,.,2.52,0.924258902,mg/L,,0,REGN2222,2,.,.,.,.,.,.,2,.,.,.,.,.,.,0,37,M,1,BLACK,2,NOT-HISPANIC-OR-LATINO,0,81.6,175.5,26.5,43.8,113.8,0.08,26.46666667,30.86666667
353,353,R2222-HV-1326-840003-004,840003004,84,REGN2222-3mg/kg-IM,IM1B,4,.,.,.,.,0,.,.,.,.,.,.,1,REGN2222,1,5,3.0303,mg/kg,180,mg,.,1,180,.,3.0303,180,.,.,1,51,F,0,WHITE,1,HISPANIC-OR-LATINO,1,59.4,162.5,22.5,44.46153846,71.69230769,0.044285714,16.53846154,18.23076923
354,354,R2222-HV-1326-840003-004,840003004,84,REGN2222-3mg/kg-IM,IM1B,4,4,4,Day-2,1,1,.,.,13,2.564949357,mg/L,,0,REGN2222,2,.,.,.,.,.,.,1,.,.,.,.,.,.,0,51,F,0,WHITE,1,HISPANIC-OR-LATINO,1,59.4,162.5,22.5,44.46153846,71.69230769,0.044285714,16.53846154,18.23076923
355,355,R2222-HV-1326-840003-004,840003004,84,REGN2222-3mg/kg-IM,IM1B,4,5,5,Day-3,2,2,.,.,18.1,2.895911938,mg/L,,0,REGN2222,2,.,.,.,.,.,.,1,.,.,.,.,.,.,0,51,F,0,WHITE,1,HISPANIC-OR-LATINO,1,59.4,162.5,22.5,44.46153846,71.69230769,0.044285714,16.53846154,18.23076923
356,356,R2222-HV-1326-840003-004,840003004,84,REGN2222-3mg/kg-IM,IM1B,4,6,6,Day-8,7,7.0278,.,.,37.7,3.629660094,mg/L,,0,REGN2222,2,.,.,.,.,.,.,1,.,.,.,.,.,.,0,51,F,0,WHITE,1,HISPANIC-OR-LATINO,1,59.4,162.5,22.5,44.46153846,71.69230769,0.044285714,16.53846154,18.23076923
357,357,R2222-HV-1326-840003-004,840003004,84,REGN2222-3mg/kg-IM,IM1B,4,7,7,Day-15,14,14.015,.,.,31.9,3.46260601,mg/L,,0,REGN2222,2,.,.,.,.,.,.,1,.,.,.,.,.,.,0,51,F,0,WHITE,1,HISPANIC-OR-LATINO,1,59.4,162.5,22.5,44.46153846,71.69230769,0.044285714,16.53846154,18.23076923
358,358,R2222-HV-1326-840003-004,840003004,84,REGN2222-3mg/kg-IM,IM1B,4,9,9,Day-29,28,27.993,.,.,24.7,3.206803244,mg/L,,0,REGN2222,2,.,.,.,.,.,.,1,.,.,.,.,.,.,0,51,F,0,WHITE,1,HISPANIC-OR-LATINO,1,59.4,162.5,22.5,44.46153846,71.69230769,0.044285714,16.53846154,18.23076923
359,359,R2222-HV-1326-840003-004,840003004,84,REGN2222-3mg/kg-IM,IM1B,4,.,.,.,.,28,.,.,.,.,.,.,1,REGN2222,1,5,3.0303,mg/kg,180,mg,.,2,180,.,3.0303,180,.,.,1,51,F,0,WHITE,1,HISPANIC-OR-LATINO,1,59.4,162.5,22.5,44.46153846,71.69230769,0.044285714,16.53846154,18.23076923
360,360,R2222-HV-1326-840003-004,840003004,84,REGN2222-3mg/kg-IM,IM1B,4,10,10,Day-30,29,29,.,.,37.9,3.634951112,mg/L,,0,REGN2222,2,.,.,.,.,.,.,2,.,.,.,.,.,.,0,51,F,0,WHITE,1,HISPANIC-OR-LATINO,1,59.4,162.5,22.5,44.46153846,71.69230769,0.044285714,16.53846154,18.23076923
361,361,R2222-HV-1326-840003-004,840003004,84,REGN2222-3mg/kg-IM,IM1B,4,11,11,Day-31,30,30,.,.,49.9,3.910021003,mg/L,,0,REGN2222,2,.,.,.,.,.,.,2,.,.,.,.,.,.,0,51,F,0,WHITE,1,HISPANIC-OR-LATINO,1,59.4,162.5,22.5,44.46153846,71.69230769,0.044285714,16.53846154,18.23076923
362,362,R2222-HV-1326-840003-004,840003004,84,REGN2222-3mg/kg-IM,IM1B,4,12,12,Day-36,35,35.002,.,.,55,4.007333185,mg/L,,0,REGN2222,2,.,.,.,.,.,.,2,.,.,.,.,.,.,0,51,F,0,WHITE,1,HISPANIC-OR-LATINO,1,59.4,162.5,22.5,44.46153846,71.69230769,0.044285714,16.53846154,18.23076923
363,363,R2222-HV-1326-840003-004,840003004,84,REGN2222-3mg/kg-IM,IM1B,4,13,13,Day-43,42,42.01,.,.,49.9,3.910021003,mg/L,,0,REGN2222,2,.,.,.,.,.,.,2,.,.,.,.,.,.,0,51,F,0,WHITE,1,HISPANIC-OR-LATINO,1,59.4,162.5,22.5,44.46153846,71.69230769,0.044285714,16.53846154,18.23076923
364,364,R2222-HV-1326-840003-004,840003004,84,REGN2222-3mg/kg-IM,IM1B,4,14,14,Day-57,56,56.001,.,.,33.4,3.5085559,mg/L,,0,REGN2222,2,.,.,.,.,.,.,2,.,.,.,.,.,.,0,51,F,0,WHITE,1,HISPANIC-OR-LATINO,1,59.4,162.5,22.5,44.46153846,71.69230769,0.044285714,16.53846154,18.23076923
365,365,R2222-HV-1326-840003-004,840003004,84,REGN2222-3mg/kg-IM,IM1B,4,15,15,Day-85,84,86.024,.,.,16.8,2.821378886,mg/L,,0,REGN2222,2,.,.,.,.,.,.,2,.,.,.,.,.,.,0,51,F,0,WHITE,1,HISPANIC-OR-LATINO,1,59.4,162.5,22.5,44.46153846,71.69230769,0.044285714,16.53846154,18.23076923
366,366,R2222-HV-1326-840003-004,840003004,84,REGN2222-3mg/kg-IM,IM1B,4,16,16,Day-113,112,111.99,.,.,15.5,2.740840024,mg/L,,0,REGN2222,2,.,.,.,.,.,.,2,.,.,.,.,.,.,0,51,F,0,WHITE,1,HISPANIC-OR-LATINO,1,59.4,162.5,22.5,44.46153846,71.69230769,0.044285714,16.53846154,18.23076923
367,367,R2222-HV-1326-840003-004,840003004,84,REGN2222-3mg/kg-IM,IM1B,4,17,17,Day-141,140,140.07,.,.,7.87,2.063058062,mg/L,,0,REGN2222,2,.,.,.,.,.,.,2,.,.,.,.,.,.,0,51,F,0,WHITE,1,HISPANIC-OR-LATINO,1,59.4,162.5,22.5,44.46153846,71.69230769,0.044285714,16.53846154,18.23076923
368,368,R2222-HV-1326-840003-008,840003008,85,REGN2222-3mg/kg-IM,IM1B,4,.,.,.,.,0,.,.,.,.,.,.,1,REGN2222,1,5,3.0242,mg/kg,225,mg,.,1,225,.,3.0242,225,.,.,1,32,F,0,BLACK,2,NOT-HISPANIC-OR-LATINO,0,74.4,171.6,25.3,40.46666667,74.6,0.059333333,11.06666667,14.53333333
369,369,R2222-HV-1326-840003-008,840003008,85,REGN2222-3mg/kg-IM,IM1B,4,4,4,Day-2,1,1,.,.,13.5,2.602689685,mg/L,,0,REGN2222,2,.,.,.,.,.,.,1,.,.,.,.,.,.,0,32,F,0,BLACK,2,NOT-HISPANIC-OR-LATINO,0,74.4,171.6,25.3,40.46666667,74.6,0.059333333,11.06666667,14.53333333
370,370,R2222-HV-1326-840003-008,840003008,85,REGN2222-3mg/kg-IM,IM1B,4,5,5,Day-3,2,2,.,.,22.2,3.100092289,mg/L,,0,REGN2222,2,.,.,.,.,.,.,1,.,.,.,.,.,.,0,32,F,0,BLACK,2,NOT-HISPANIC-OR-LATINO,0,74.4,171.6,25.3,40.46666667,74.6,0.059333333,11.06666667,14.53333333
371,371,R2222-HV-1326-840003-008,840003008,85,REGN2222-3mg/kg-IM,IM1B,4,6,6,Day-8,7,7.0285,.,.,37.9,3.634951112,mg/L,,0,REGN2222,2,.,.,.,.,.,.,1,.,.,.,.,.,.,0,32,F,0,BLACK,2,NOT-HISPANIC-OR-LATINO,0,74.4,171.6,25.3,40.46666667,74.6,0.059333333,11.06666667,14.53333333
372,372,R2222-HV-1326-840003-008,840003008,85,REGN2222-3mg/kg-IM,IM1B,4,7,7,Day-15,14,15.162,.,.,36.5,3.597312261,mg/L,,0,REGN2222,2,.,.,.,.,.,.,1,.,.,.,.,.,.,0,32,F,0,BLACK,2,NOT-HISPANIC-OR-LATINO,0,74.4,171.6,25.3,40.46666667,74.6,0.059333333,11.06666667,14.53333333
373,373,R2222-HV-1326-840003-008,840003008,85,REGN2222-3mg/kg-IM,IM1B,4,9,9,Day-29,28,27.993,.,.,27.9,3.328626689,mg/L,,0,REGN2222,2,.,.,.,.,.,.,1,.,.,.,.,.,.,0,32,F,0,BLACK,2,NOT-HISPANIC-OR-LATINO,0,74.4,171.6,25.3,40.46666667,74.6,0.059333333,11.06666667,14.53333333
374,374,R2222-HV-1326-840003-008,840003008,85,REGN2222-3mg/kg-IM,IM1B,4,.,.,.,.,28,.,.,.,.,.,.,1,REGN2222,1,5,3.0242,mg/kg,225,mg,.,2,225,.,3.0242,225,.,.,1,32,F,0,BLACK,2,NOT-HISPANIC-OR-LATINO,0,74.4,171.6,25.3,40.46666667,74.6,0.059333333,11.06666667,14.53333333
375,375,R2222-HV-1326-840003-008,840003008,85,REGN2222-3mg/kg-IM,IM1B,4,10,10,Day-30,29,29,.,.,49.4,3.899950424,mg/L,,0,REGN2222,2,.,.,.,.,.,.,2,.,.,.,.,.,.,0,32,F,0,BLACK,2,NOT-HISPANIC-OR-LATINO,0,74.4,171.6,25.3,40.46666667,74.6,0.059333333,11.06666667,14.53333333
376,376,R2222-HV-1326-840003-008,840003008,85,REGN2222-3mg/kg-IM,IM1B,4,11,11,Day-31,30,30,.,.,55.7,4.019980147,mg/L,,0,REGN2222,2,.,.,.,.,.,.,2,.,.,.,.,.,.,0,32,F,0,BLACK,2,NOT-HISPANIC-OR-LATINO,0,74.4,171.6,25.3,40.46666667,74.6,0.059333333,11.06666667,14.53333333
377,377,R2222-HV-1326-840003-008,840003008,85,REGN2222-3mg/kg-IM,IM1B,4,12,12,Day-36,35,36.113,.,.,71.1,4.264087337,mg/L,,0,REGN2222,2,.,.,.,.,.,.,2,.,.,.,.,.,.,0,32,F,0,BLACK,2,NOT-HISPANIC-OR-LATINO,0,74.4,171.6,25.3,40.46666667,74.6,0.059333333,11.06666667,14.53333333
378,378,R2222-HV-1326-840003-008,840003008,85,REGN2222-3mg/kg-IM,IM1B,4,13,13,Day-43,42,41.993,.,.,47.1,3.852273001,mg/L,,0,REGN2222,2,.,.,.,.,.,.,2,.,.,.,.,.,.,0,32,F,0,BLACK,2,NOT-HISPANIC-OR-LATINO,0,74.4,171.6,25.3,40.46666667,74.6,0.059333333,11.06666667,14.53333333
379,379,R2222-HV-1326-840003-008,840003008,85,REGN2222-3mg/kg-IM,IM1B,4,14,14,Day-57,56,56.023,.,.,38,3.63758616,mg/L,,0,REGN2222,2,.,.,.,.,.,.,2,.,.,.,.,.,.,0,32,F,0,BLACK,2,NOT-HISPANIC-OR-LATINO,0,74.4,171.6,25.3,40.46666667,74.6,0.059333333,11.06666667,14.53333333
380,380,R2222-HV-1326-840003-008,840003008,85,REGN2222-3mg/kg-IM,IM1B,4,15,15,Day-85,84,84.008,.,.,19.9,2.990719732,mg/L,,0,REGN2222,2,.,.,.,.,.,.,2,.,.,.,.,.,.,0,32,F,0,BLACK,2,NOT-HISPANIC-OR-LATINO,0,74.4,171.6,25.3,40.46666667,74.6,0.059333333,11.06666667,14.53333333
381,381,R2222-HV-1326-840003-008,840003008,85,REGN2222-3mg/kg-IM,IM1B,4,16,16,Day-113,112,111.96,.,.,15.9,2.766319109,mg/L,,0,REGN2222,2,.,.,.,.,.,.,2,.,.,.,.,.,.,0,32,F,0,BLACK,2,NOT-HISPANIC-OR-LATINO,0,74.4,171.6,25.3,40.46666667,74.6,0.059333333,11.06666667,14.53333333
382,382,R2222-HV-1326-840003-008,840003008,85,REGN2222-3mg/kg-IM,IM1B,4,17,17,Day-141,140,140.05,.,.,7.19,1.972691172,mg/L,,0,REGN2222,2,.,.,.,.,.,.,2,.,.,.,.,.,.,0,32,F,0,BLACK,2,NOT-HISPANIC-OR-LATINO,0,74.4,171.6,25.3,40.46666667,74.6,0.059333333,11.06666667,14.53333333
383,383,R2222-HV-1326-840003-009,840003009,86,REGN2222-3mg/kg-IM,IM1B,4,.,.,.,.,0,.,.,.,.,.,.,1,REGN2222,1,5,3.0811,mg/kg,285,mg,.,1,285,.,3.0811,285,.,.,1,32,M,1,BLACK,2,HISPANIC-OR-LATINO,1,92.5,174.2,30.5,46.07142857,97.64285714,0.105,14.14285714,19
384,384,R2222-HV-1326-840003-009,840003009,86,REGN2222-3mg/kg-IM,IM1B,4,4,4,Day-2,1,1,.,.,19.5,2.970414466,mg/L,,0,REGN2222,2,.,.,.,.,.,.,1,.,.,.,.,.,.,0,32,M,1,BLACK,2,HISPANIC-OR-LATINO,1,92.5,174.2,30.5,46.07142857,97.64285714,0.105,14.14285714,19
385,385,R2222-HV-1326-840003-009,840003009,86,REGN2222-3mg/kg-IM,IM1B,4,5,5,Day-3,2,2.0007,.,.,29.1,3.370738174,mg/L,,0,REGN2222,2,.,.,.,.,.,.,1,.,.,.,.,.,.,0,32,M,1,BLACK,2,HISPANIC-OR-LATINO,1,92.5,174.2,30.5,46.07142857,97.64285714,0.105,14.14285714,19
386,386,R2222-HV-1326-840003-009,840003009,86,REGN2222-3mg/kg-IM,IM1B,4,6,6,Day-8,7,7.0535,.,.,33.6,3.514526067,mg/L,,0,REGN2222,2,.,.,.,.,.,.,1,.,.,.,.,.,.,0,32,M,1,BLACK,2,HISPANIC-OR-LATINO,1,92.5,174.2,30.5,46.07142857,97.64285714,0.105,14.14285714,19
387,387,R2222-HV-1326-840003-009,840003009,86,REGN2222-3mg/kg-IM,IM1B,4,7,7,Day-15,14,13.935,.,.,22.7,3.122364924,mg/L,,0,REGN2222,2,.,.,.,.,.,.,1,.,.,.,.,.,.,0,32,M,1,BLACK,2,HISPANIC-OR-LATINO,1,92.5,174.2,30.5,46.07142857,97.64285714,0.105,14.14285714,19
388,388,R2222-HV-1326-840003-009,840003009,86,REGN2222-3mg/kg-IM,IM1B,4,9,9,Day-29,28,27.993,.,.,19,2.944438979,mg/L,,0,REGN2222,2,.,.,.,.,.,.,1,.,.,.,.,.,.,0,32,M,1,BLACK,2,HISPANIC-OR-LATINO,1,92.5,174.2,30.5,46.07142857,97.64285714,0.105,14.14285714,19
389,389,R2222-HV-1326-840003-009,840003009,86,REGN2222-3mg/kg-IM,IM1B,4,.,.,.,.,28,.,.,.,.,.,.,1,REGN2222,1,5,3.0811,mg/kg,285,mg,.,2,285,.,3.0811,285,.,.,1,32,M,1,BLACK,2,HISPANIC-OR-LATINO,1,92.5,174.2,30.5,46.07142857,97.64285714,0.105,14.14285714,19
390,390,R2222-HV-1326-840003-009,840003009,86,REGN2222-3mg/kg-IM,IM1B,4,10,10,Day-30,29,29,.,.,42.5,3.749504076,mg/L,,0,REGN2222,2,.,.,.,.,.,.,2,.,.,.,.,.,.,0,32,M,1,BLACK,2,HISPANIC-OR-LATINO,1,92.5,174.2,30.5,46.07142857,97.64285714,0.105,14.14285714,19
391,391,R2222-HV-1326-840003-009,840003009,86,REGN2222-3mg/kg-IM,IM1B,4,11,11,Day-31,30,30,.,.,53.5,3.979681654,mg/L,,0,REGN2222,2,.,.,.,.,.,.,2,.,.,.,.,.,.,0,32,M,1,BLACK,2,HISPANIC-OR-LATINO,1,92.5,174.2,30.5,46.07142857,97.64285714,0.105,14.14285714,19
392,392,R2222-HV-1326-840003-009,840003009,86,REGN2222-3mg/kg-IM,IM1B,4,12,12,Day-36,35,35.014,.,.,77.3,4.347693956,mg/L,,0,REGN2222,2,.,.,.,.,.,.,2,.,.,.,.,.,.,0,32,M,1,BLACK,2,HISPANIC-OR-LATINO,1,92.5,174.2,30.5,46.07142857,97.64285714,0.105,14.14285714,19
393,393,R2222-HV-1326-840003-009,840003009,86,REGN2222-3mg/kg-IM,IM1B,4,13,13,Day-43,42,41.95,.,.,64.3,4.163559631,mg/L,,0,REGN2222,2,.,.,.,.,.,.,2,.,.,.,.,.,.,0,32,M,1,BLACK,2,HISPANIC-OR-LATINO,1,92.5,174.2,30.5,46.07142857,97.64285714,0.105,14.14285714,19
394,394,R2222-HV-1326-840003-009,840003009,86,REGN2222-3mg/kg-IM,IM1B,4,14,14,Day-57,56,55.985,.,.,30.5,3.417726684,mg/L,,0,REGN2222,2,.,.,.,.,.,.,2,.,.,.,.,.,.,0,32,M,1,BLACK,2,HISPANIC-OR-LATINO,1,92.5,174.2,30.5,46.07142857,97.64285714,0.105,14.14285714,19
395,395,R2222-HV-1326-840003-009,840003009,86,REGN2222-3mg/kg-IM,IM1B,4,15,15,Day-85,84,83.951,.,.,15.1,2.714694744,mg/L,,0,REGN2222,2,.,.,.,.,.,.,2,.,.,.,.,.,.,0,32,M,1,BLACK,2,HISPANIC-OR-LATINO,1,92.5,174.2,30.5,46.07142857,97.64285714,0.105,14.14285714,19
396,396,R2222-HV-1326-840003-009,840003009,86,REGN2222-3mg/kg-IM,IM1B,4,16,16,Day-113,112,111.95,.,.,10.4,2.341805806,mg/L,,0,REGN2222,2,.,.,.,.,.,.,2,.,.,.,.,.,.,0,32,M,1,BLACK,2,HISPANIC-OR-LATINO,1,92.5,174.2,30.5,46.07142857,97.64285714,0.105,14.14285714,19
397,397,R2222-HV-1326-840003-009,840003009,86,REGN2222-3mg/kg-IM,IM1B,4,17,17,Day-141,140,139.96,.,.,4.82,1.572773928,mg/L,,0,REGN2222,2,.,.,.,.,.,.,2,.,.,.,.,.,.,0,32,M,1,BLACK,2,HISPANIC-OR-LATINO,1,92.5,174.2,30.5,46.07142857,97.64285714,0.105,14.14285714,19
398,398,R2222-HV-1326-840003-010,840003010,87,REGN2222-3mg/kg-IM,IM1B,4,.,.,.,.,0,.,.,.,.,.,.,1,REGN2222,1,5,3.0553,mg/kg,315,mg,.,1,315,.,3.0553,315,.,.,1,32,M,1,ASIAN,3,NOT-HISPANIC-OR-LATINO,0,103.1,182.6,30.9,43.35714286,100.8571429,0.082857143,14.35714286,21.42857143
399,399,R2222-HV-1326-840003-010,840003010,87,REGN2222-3mg/kg-IM,IM1B,4,4,4,Day-2,1,1,.,.,22.4,3.109060959,mg/L,,0,REGN2222,2,.,.,.,.,.,.,1,.,.,.,.,.,.,0,32,M,1,ASIAN,3,NOT-HISPANIC-OR-LATINO,0,103.1,182.6,30.9,43.35714286,100.8571429,0.082857143,14.35714286,21.42857143
400,400,R2222-HV-1326-840003-010,840003010,87,REGN2222-3mg/kg-IM,IM1B,4,5,5,Day-3,2,2.0007,.,.,33.6,3.514526067,mg/L,,0,REGN2222,2,.,.,.,.,.,.,1,.,.,.,.,.,.,0,32,M,1,ASIAN,3,NOT-HISPANIC-OR-LATINO,0,103.1,182.6,30.9,43.35714286,100.8571429,0.082857143,14.35714286,21.42857143
401,401,R2222-HV-1326-840003-010,840003010,87,REGN2222-3mg/kg-IM,IM1B,4,6,6,Day-8,7,7.0354,.,.,41.3,3.7208625,mg/L,,0,REGN2222,2,.,.,.,.,.,.,1,.,.,.,.,.,.,0,32,M,1,ASIAN,3,NOT-HISPANIC-OR-LATINO,0,103.1,182.6,30.9,43.35714286,100.8571429,0.082857143,14.35714286,21.42857143
402,402,R2222-HV-1326-840003-010,840003010,87,REGN2222-3mg/kg-IM,IM1B,4,7,7,Day-15,14,13.925,.,.,34.5,3.540959324,mg/L,,0,REGN2222,2,.,.,.,.,.,.,1,.,.,.,.,.,.,0,32,M,1,ASIAN,3,NOT-HISPANIC-OR-LATINO,0,103.1,182.6,30.9,43.35714286,100.8571429,0.082857143,14.35714286,21.42857143
403,403,R2222-HV-1326-840003-010,840003010,87,REGN2222-3mg/kg-IM,IM1B,4,9,9,Day-29,28,27.993,.,.,31.2,3.440418095,mg/L,,0,REGN2222,2,.,.,.,.,.,.,1,.,.,.,.,.,.,0,32,M,1,ASIAN,3,NOT-HISPANIC-OR-LATINO,0,103.1,182.6,30.9,43.35714286,100.8571429,0.082857143,14.35714286,21.42857143
404,404,R2222-HV-1326-840003-010,840003010,87,REGN2222-3mg/kg-IM,IM1B,4,.,.,.,.,28,.,.,.,.,.,.,1,REGN2222,1,5,3.0553,mg/kg,315,mg,.,2,315,.,3.0553,315,.,.,1,32,M,1,ASIAN,3,NOT-HISPANIC-OR-LATINO,0,103.1,182.6,30.9,43.35714286,100.8571429,0.082857143,14.35714286,21.42857143
405,405,R2222-HV-1326-840003-010,840003010,87,REGN2222-3mg/kg-IM,IM1B,4,10,10,Day-30,29,29,.,.,50.7,3.925925911,mg/L,,0,REGN2222,2,.,.,.,.,.,.,2,.,.,.,.,.,.,0,32,M,1,ASIAN,3,NOT-HISPANIC-OR-LATINO,0,103.1,182.6,30.9,43.35714286,100.8571429,0.082857143,14.35714286,21.42857143
406,406,R2222-HV-1326-840003-010,840003010,87,REGN2222-3mg/kg-IM,IM1B,4,11,11,Day-31,30,30,.,.,47.3,3.856510295,mg/L,,0,REGN2222,2,.,.,.,.,.,.,2,.,.,.,.,.,.,0,32,M,1,ASIAN,3,NOT-HISPANIC-OR-LATINO,0,103.1,182.6,30.9,43.35714286,100.8571429,0.082857143,14.35714286,21.42857143
407,407,R2222-HV-1326-840003-010,840003010,87,REGN2222-3mg/kg-IM,IM1B,4,12,12,Day-36,35,35.005,.,.,49.8,3.908014984,mg/L,,0,REGN2222,2,.,.,.,.,.,.,2,.,.,.,.,.,.,0,32,M,1,ASIAN,3,NOT-HISPANIC-OR-LATINO,0,103.1,182.6,30.9,43.35714286,100.8571429,0.082857143,14.35714286,21.42857143
408,408,R2222-HV-1326-840003-010,840003010,87,REGN2222-3mg/kg-IM,IM1B,4,13,13,Day-43,42,41.927,.,.,58.9,4.075841091,mg/L,,0,REGN2222,2,.,.,.,.,.,.,2,.,.,.,.,.,.,0,32,M,1,ASIAN,3,NOT-HISPANIC-OR-LATINO,0,103.1,182.6,30.9,43.35714286,100.8571429,0.082857143,14.35714286,21.42857143
409,409,R2222-HV-1326-840003-010,840003010,87,REGN2222-3mg/kg-IM,IM1B,4,14,14,Day-57,56,55.98,.,.,34.7,3.546739687,mg/L,,0,REGN2222,2,.,.,.,.,.,.,2,.,.,.,.,.,.,0,32,M,1,ASIAN,3,NOT-HISPANIC-OR-LATINO,0,103.1,182.6,30.9,43.35714286,100.8571429,0.082857143,14.35714286,21.42857143
410,410,R2222-HV-1326-840003-010,840003010,87,REGN2222-3mg/kg-IM,IM1B,4,15,15,Day-85,84,83.926,.,.,17.6,2.867898902,mg/L,,0,REGN2222,2,.,.,.,.,.,.,2,.,.,.,.,.,.,0,32,M,1,ASIAN,3,NOT-HISPANIC-OR-LATINO,0,103.1,182.6,30.9,43.35714286,100.8571429,0.082857143,14.35714286,21.42857143
411,411,R2222-HV-1326-840003-010,840003010,87,REGN2222-3mg/kg-IM,IM1B,4,16,16,Day-113,112,111.93,.,.,11.5,2.442347035,mg/L,,0,REGN2222,2,.,.,.,.,.,.,2,.,.,.,.,.,.,0,32,M,1,ASIAN,3,NOT-HISPANIC-OR-LATINO,0,103.1,182.6,30.9,43.35714286,100.8571429,0.082857143,14.35714286,21.42857143
412,412,R2222-HV-1326-840003-010,840003010,87,REGN2222-3mg/kg-IM,IM1B,4,17,17,Day-141,140,139.95,.,.,5.77,1.752672081,mg/L,,0,REGN2222,2,.,.,.,.,.,.,2,.,.,.,.,.,.,0,32,M,1,ASIAN,3,NOT-HISPANIC-OR-LATINO,0,103.1,182.6,30.9,43.35714286,100.8571429,0.082857143,14.35714286,21.42857143
413,413,R2222-HV-1326-840003-011,840003011,88,REGN2222-3mg/kg-IM,IM1B,4,.,.,.,.,0,.,.,.,.,.,.,1,REGN2222,1,5,3,mg/kg,195,mg,.,1,195,.,3,195,.,.,1,23,F,0,BLACK,2,NOT-HISPANIC-OR-LATINO,0,65,164,24.2,42.92307692,75.84615385,0.113076923,23.15384615,21
414,414,R2222-HV-1326-840003-011,840003011,88,REGN2222-3mg/kg-IM,IM1B,4,4,4,Day-2,1,1,.,.,10.6,2.360854001,mg/L,,0,REGN2222,2,.,.,.,.,.,.,1,.,.,.,.,.,.,0,23,F,0,BLACK,2,NOT-HISPANIC-OR-LATINO,0,65,164,24.2,42.92307692,75.84615385,0.113076923,23.15384615,21
415,415,R2222-HV-1326-840003-011,840003011,88,REGN2222-3mg/kg-IM,IM1B,4,5,5,Day-3,2,2,.,.,18,2.890371758,mg/L,,0,REGN2222,2,.,.,.,.,.,.,1,.,.,.,.,.,.,0,23,F,0,BLACK,2,NOT-HISPANIC-OR-LATINO,0,65,164,24.2,42.92307692,75.84615385,0.113076923,23.15384615,21
416,416,R2222-HV-1326-840003-011,840003011,88,REGN2222-3mg/kg-IM,IM1B,4,6,6,Day-8,7,7.0167,.,.,26.9,3.292126287,mg/L,,0,REGN2222,2,.,.,.,.,.,.,1,.,.,.,.,.,.,0,23,F,0,BLACK,2,NOT-HISPANIC-OR-LATINO,0,65,164,24.2,42.92307692,75.84615385,0.113076923,23.15384615,21
417,417,R2222-HV-1326-840003-011,840003011,88,REGN2222-3mg/kg-IM,IM1B,4,7,7,Day-15,14,14.09,.,.,24.6,3.202746443,mg/L,,0,REGN2222,2,.,.,.,.,.,.,1,.,.,.,.,.,.,0,23,F,0,BLACK,2,NOT-HISPANIC-OR-LATINO,0,65,164,24.2,42.92307692,75.84615385,0.113076923,23.15384615,21
418,418,R2222-HV-1326-840003-011,840003011,88,REGN2222-3mg/kg-IM,IM1B,4,9,9,Day-29,28,27.993,.,.,20,2.995732274,mg/L,,0,REGN2222,2,.,.,.,.,.,.,1,.,.,.,.,.,.,0,23,F,0,BLACK,2,NOT-HISPANIC-OR-LATINO,0,65,164,24.2,42.92307692,75.84615385,0.113076923,23.15384615,21
419,419,R2222-HV-1326-840003-011,840003011,88,REGN2222-3mg/kg-IM,IM1B,4,.,.,.,.,28,.,.,.,.,.,.,1,REGN2222,1,5,3,mg/kg,195,mg,.,2,195,.,3,195,.,.,1,23,F,0,BLACK,2,NOT-HISPANIC-OR-LATINO,0,65,164,24.2,42.92307692,75.84615385,0.113076923,23.15384615,21
420,420,R2222-HV-1326-840003-011,840003011,88,REGN2222-3mg/kg-IM,IM1B,4,10,10,Day-30,29,29,.,.,30.6,3.421000009,mg/L,,0,REGN2222,2,.,.,.,.,.,.,2,.,.,.,.,.,.,0,23,F,0,BLACK,2,NOT-HISPANIC-OR-LATINO,0,65,164,24.2,42.92307692,75.84615385,0.113076923,23.15384615,21
421,421,R2222-HV-1326-840003-011,840003011,88,REGN2222-3mg/kg-IM,IM1B,4,11,11,Day-31,30,30,.,.,32.4,3.478158423,mg/L,,0,REGN2222,2,.,.,.,.,.,.,2,.,.,.,.,.,.,0,23,F,0,BLACK,2,NOT-HISPANIC-OR-LATINO,0,65,164,24.2,42.92307692,75.84615385,0.113076923,23.15384615,21
422,422,R2222-HV-1326-840003-011,840003011,88,REGN2222-3mg/kg-IM,IM1B,4,12,12,Day-36,35,35.005,.,.,45.9,3.826465117,mg/L,,0,REGN2222,2,.,.,.,.,.,.,2,.,.,.,.,.,.,0,23,F,0,BLACK,2,NOT-HISPANIC-OR-LATINO,0,65,164,24.2,42.92307692,75.84615385,0.113076923,23.15384615,21
423,423,R2222-HV-1326-840003-011,840003011,88,REGN2222-3mg/kg-IM,IM1B,4,13,13,Day-43,42,41.978,.,.,36.2,3.589059119,mg/L,,0,REGN2222,2,.,.,.,.,.,.,2,.,.,.,.,.,.,0,23,F,0,BLACK,2,NOT-HISPANIC-OR-LATINO,0,65,164,24.2,42.92307692,75.84615385,0.113076923,23.15384615,21
424,424,R2222-HV-1326-840003-011,840003011,88,REGN2222-3mg/kg-IM,IM1B,4,14,14,Day-57,56,56.058,.,.,21.2,3.054001182,mg/L,,0,REGN2222,2,.,.,.,.,.,.,2,.,.,.,.,.,.,0,23,F,0,BLACK,2,NOT-HISPANIC-OR-LATINO,0,65,164,24.2,42.92307692,75.84615385,0.113076923,23.15384615,21
425,425,R2222-HV-1326-840003-011,840003011,88,REGN2222-3mg/kg-IM,IM1B,4,15,15,Day-85,84,83.992,.,.,8.89,2.18492705,mg/L,,0,REGN2222,2,.,.,.,.,.,.,2,.,.,.,.,.,.,0,23,F,0,BLACK,2,NOT-HISPANIC-OR-LATINO,0,65,164,24.2,42.92307692,75.84615385,0.113076923,23.15384615,21
426,426,R2222-HV-1326-840003-011,840003011,88,REGN2222-3mg/kg-IM,IM1B,4,17,17,Day-141,140,140.02,.,.,1.64,0.494696242,mg/L,,0,REGN2222,2,.,.,.,.,.,.,2,.,.,.,.,.,.,0,23,F,0,BLACK,2,NOT-HISPANIC-OR-LATINO,0,65,164,24.2,42.92307692,75.84615385,0.113076923,23.15384615,21
427,427,R2222-HV-1326-840003-014,840003014,89,REGN2222-3mg/kg-IM,IM1B,4,.,.,.,.,0,.,.,.,.,.,.,1,REGN2222,1,5,3.1656,mg/kg,195,mg,.,1,195,.,3.1656,195,.,.,1,25,F,0,ASIAN,3,NOT-HISPANIC-OR-LATINO,0,61.6,162,23.5,45.85714286,54.92857143,0.155714286,10.42857143,17.15384615
428,428,R2222-HV-1326-840003-014,840003014,89,REGN2222-3mg/kg-IM,IM1B,4,4,4,Day-2,1,1,.,.,16.7,2.815408719,mg/L,,0,REGN2222,2,.,.,.,.,.,.,1,.,.,.,.,.,.,0,25,F,0,ASIAN,3,NOT-HISPANIC-OR-LATINO,0,61.6,162,23.5,45.85714286,54.92857143,0.155714286,10.42857143,17.15384615
429,429,R2222-HV-1326-840003-014,840003014,89,REGN2222-3mg/kg-IM,IM1B,4,5,5,Day-3,2,2,.,.,21.3,3.058707073,mg/L,,0,REGN2222,2,.,.,.,.,.,.,1,.,.,.,.,.,.,0,25,F,0,ASIAN,3,NOT-HISPANIC-OR-LATINO,0,61.6,162,23.5,45.85714286,54.92857143,0.155714286,10.42857143,17.15384615
430,430,R2222-HV-1326-840003-014,840003014,89,REGN2222-3mg/kg-IM,IM1B,4,6,6,Day-8,7,7.0604,.,.,38.8,3.658420247,mg/L,,0,REGN2222,2,.,.,.,.,.,.,1,.,.,.,.,.,.,0,25,F,0,ASIAN,3,NOT-HISPANIC-OR-LATINO,0,61.6,162,23.5,45.85714286,54.92857143,0.155714286,10.42857143,17.15384615
431,431,R2222-HV-1326-840003-014,840003014,89,REGN2222-3mg/kg-IM,IM1B,4,7,7,Day-15,14,14.009,.,.,33.5,3.511545439,mg/L,,0,REGN2222,2,.,.,.,.,.,.,1,.,.,.,.,.,.,0,25,F,0,ASIAN,3,NOT-HISPANIC-OR-LATINO,0,61.6,162,23.5,45.85714286,54.92857143,0.155714286,10.42857143,17.15384615
432,432,R2222-HV-1326-840003-014,840003014,89,REGN2222-3mg/kg-IM,IM1B,4,9,9,Day-29,28,27.993,.,.,28.2,3.339321978,mg/L,,0,REGN2222,2,.,.,.,.,.,.,1,.,.,.,.,.,.,0,25,F,0,ASIAN,3,NOT-HISPANIC-OR-LATINO,0,61.6,162,23.5,45.85714286,54.92857143,0.155714286,10.42857143,17.15384615
433,433,R2222-HV-1326-840003-014,840003014,89,REGN2222-3mg/kg-IM,IM1B,4,.,.,.,.,28,.,.,.,.,.,.,1,REGN2222,1,5,3.1656,mg/kg,195,mg,.,2,195,.,3.1656,195,.,.,1,25,F,0,ASIAN,3,NOT-HISPANIC-OR-LATINO,0,61.6,162,23.5,45.85714286,54.92857143,0.155714286,10.42857143,17.15384615
434,434,R2222-HV-1326-840003-014,840003014,89,REGN2222-3mg/kg-IM,IM1B,4,10,10,Day-30,29,29,.,.,42.7,3.75419892,mg/L,,0,REGN2222,2,.,.,.,.,.,.,2,.,.,.,.,.,.,0,25,F,0,ASIAN,3,NOT-HISPANIC-OR-LATINO,0,61.6,162,23.5,45.85714286,54.92857143,0.155714286,10.42857143,17.15384615
435,435,R2222-HV-1326-840003-014,840003014,89,REGN2222-3mg/kg-IM,IM1B,4,11,11,Day-31,30,30.001,.,.,54,3.988984047,mg/L,,0,REGN2222,2,.,.,.,.,.,.,2,.,.,.,.,.,.,0,25,F,0,ASIAN,3,NOT-HISPANIC-OR-LATINO,0,61.6,162,23.5,45.85714286,54.92857143,0.155714286,10.42857143,17.15384615
436,436,R2222-HV-1326-840003-014,840003014,89,REGN2222-3mg/kg-IM,IM1B,4,12,12,Day-36,35,35.074,.,.,56.8,4.039536326,mg/L,,0,REGN2222,2,.,.,.,.,.,.,2,.,.,.,.,.,.,0,25,F,0,ASIAN,3,NOT-HISPANIC-OR-LATINO,0,61.6,162,23.5,45.85714286,54.92857143,0.155714286,10.42857143,17.15384615
437,437,R2222-HV-1326-840003-014,840003014,89,REGN2222-3mg/kg-IM,IM1B,4,13,13,Day-43,42,41.989,.,.,45.1,3.808882247,mg/L,,0,REGN2222,2,.,.,.,.,.,.,2,.,.,.,.,.,.,0,25,F,0,ASIAN,3,NOT-HISPANIC-OR-LATINO,0,61.6,162,23.5,45.85714286,54.92857143,0.155714286,10.42857143,17.15384615
438,438,R2222-HV-1326-840003-014,840003014,89,REGN2222-3mg/kg-IM,IM1B,4,14,14,Day-57,56,56.211,.,.,40.3,3.696351469,mg/L,,0,REGN2222,2,.,.,.,.,.,.,2,.,.,.,.,.,.,0,25,F,0,ASIAN,3,NOT-HISPANIC-OR-LATINO,0,61.6,162,23.5,45.85714286,54.92857143,0.155714286,10.42857143,17.15384615
439,439,R2222-HV-1326-840003-014,840003014,89,REGN2222-3mg/kg-IM,IM1B,4,15,15,Day-85,84,84.217,.,.,21.4,3.063390922,mg/L,,0,REGN2222,2,.,.,.,.,.,.,2,.,.,.,.,.,.,0,25,F,0,ASIAN,3,NOT-HISPANIC-OR-LATINO,0,61.6,162,23.5,45.85714286,54.92857143,0.155714286,10.42857143,17.15384615
440,440,R2222-HV-1326-840003-014,840003014,89,REGN2222-3mg/kg-IM,IM1B,4,16,16,Day-113,112,112.25,.,.,14.5,2.674148649,mg/L,,0,REGN2222,2,.,.,.,.,.,.,2,.,.,.,.,.,.,0,25,F,0,ASIAN,3,NOT-HISPANIC-OR-LATINO,0,61.6,162,23.5,45.85714286,54.92857143,0.155714286,10.42857143,17.15384615
441,441,R2222-HV-1326-840003-014,840003014,89,REGN2222-3mg/kg-IM,IM1B,4,17,17,Day-141,140,140.24,.,.,7.61,2.029463172,mg/L,,0,REGN2222,2,.,.,.,.,.,.,2,.,.,.,.,.,.,0,25,F,0,ASIAN,3,NOT-HISPANIC-OR-LATINO,0,61.6,162,23.5,45.85714286,54.92857143,0.155714286,10.42857143,17.15384615
442,442,R2222-HV-1326-840003-018,840003018,90,REGN2222-3mg/kg-IM,IM1B,4,.,.,.,.,0,.,.,.,.,.,.,1,REGN2222,1,5,2.9335,mg/kg,225,mg,.,1,225,.,2.9335,225,.,.,1,59,F,0,BLACK,2,NOT-HISPANIC-OR-LATINO,0,76.7,164.1,28.5,41.14285714,78,0.189285714,13.21428571,19.78571429
443,443,R2222-HV-1326-840003-018,840003018,90,REGN2222-3mg/kg-IM,IM1B,4,4,4,Day-2,1,1,.,.,18.9,2.939161922,mg/L,,0,REGN2222,2,.,.,.,.,.,.,1,.,.,.,.,.,.,0,59,F,0,BLACK,2,NOT-HISPANIC-OR-LATINO,0,76.7,164.1,28.5,41.14285714,78,0.189285714,13.21428571,19.78571429
444,444,R2222-HV-1326-840003-018,840003018,90,REGN2222-3mg/kg-IM,IM1B,4,5,5,Day-3,2,2,.,.,32.4,3.478158423,mg/L,,0,REGN2222,2,.,.,.,.,.,.,1,.,.,.,.,.,.,0,59,F,0,BLACK,2,NOT-HISPANIC-OR-LATINO,0,76.7,164.1,28.5,41.14285714,78,0.189285714,13.21428571,19.78571429
445,445,R2222-HV-1326-840003-018,840003018,90,REGN2222-3mg/kg-IM,IM1B,4,6,6,Day-8,7,6.9562,.,.,37.1,3.61361697,mg/L,,0,REGN2222,2,.,.,.,.,.,.,1,.,.,.,.,.,.,0,59,F,0,BLACK,2,NOT-HISPANIC-OR-LATINO,0,76.7,164.1,28.5,41.14285714,78,0.189285714,13.21428571,19.78571429
446,446,R2222-HV-1326-840003-018,840003018,90,REGN2222-3mg/kg-IM,IM1B,4,7,7,Day-15,14,13.932,.,.,34.6,3.543853682,mg/L,,0,REGN2222,2,.,.,.,.,.,.,1,.,.,.,.,.,.,0,59,F,0,BLACK,2,NOT-HISPANIC-OR-LATINO,0,76.7,164.1,28.5,41.14285714,78,0.189285714,13.21428571,19.78571429
447,447,R2222-HV-1326-840003-018,840003018,90,REGN2222-3mg/kg-IM,IM1B,4,9,9,Day-29,28,27.993,.,.,17.5,2.862200881,mg/L,,0,REGN2222,2,.,.,.,.,.,.,1,.,.,.,.,.,.,0,59,F,0,BLACK,2,NOT-HISPANIC-OR-LATINO,0,76.7,164.1,28.5,41.14285714,78,0.189285714,13.21428571,19.78571429
448,448,R2222-HV-1326-840003-018,840003018,90,REGN2222-3mg/kg-IM,IM1B,4,.,.,.,.,28,.,.,.,.,.,.,1,REGN2222,1,5,2.9335,mg/kg,225,mg,.,2,225,.,2.9335,225,.,.,1,59,F,0,BLACK,2,NOT-HISPANIC-OR-LATINO,0,76.7,164.1,28.5,41.14285714,78,0.189285714,13.21428571,19.78571429
449,449,R2222-HV-1326-840003-018,840003018,90,REGN2222-3mg/kg-IM,IM1B,4,10,10,Day-30,29,29,.,.,30.8,3.42751469,mg/L,,0,REGN2222,2,.,.,.,.,.,.,2,.,.,.,.,.,.,0,59,F,0,BLACK,2,NOT-HISPANIC-OR-LATINO,0,76.7,164.1,28.5,41.14285714,78,0.189285714,13.21428571,19.78571429
450,450,R2222-HV-1326-840003-018,840003018,90,REGN2222-3mg/kg-IM,IM1B,4,11,11,Day-31,30,30,.,.,43,3.761200116,mg/L,,0,REGN2222,2,.,.,.,.,.,.,2,.,.,.,.,.,.,0,59,F,0,BLACK,2,NOT-HISPANIC-OR-LATINO,0,76.7,164.1,28.5,41.14285714,78,0.189285714,13.21428571,19.78571429
451,451,R2222-HV-1326-840003-018,840003018,90,REGN2222-3mg/kg-IM,IM1B,4,12,12,Day-36,35,36.837,.,.,53,3.970291914,mg/L,,0,REGN2222,2,.,.,.,.,.,.,2,.,.,.,.,.,.,0,59,F,0,BLACK,2,NOT-HISPANIC-OR-LATINO,0,76.7,164.1,28.5,41.14285714,78,0.189285714,13.21428571,19.78571429
452,452,R2222-HV-1326-840003-018,840003018,90,REGN2222-3mg/kg-IM,IM1B,4,13,13,Day-43,42,41.847,.,.,56.9,4.041295341,mg/L,,0,REGN2222,2,.,.,.,.,.,.,2,.,.,.,.,.,.,0,59,F,0,BLACK,2,NOT-HISPANIC-OR-LATINO,0,76.7,164.1,28.5,41.14285714,78,0.189285714,13.21428571,19.78571429
453,453,R2222-HV-1326-840003-018,840003018,90,REGN2222-3mg/kg-IM,IM1B,4,14,14,Day-57,56,55.981,.,.,32.2,3.471966453,mg/L,,0,REGN2222,2,.,.,.,.,.,.,2,.,.,.,.,.,.,0,59,F,0,BLACK,2,NOT-HISPANIC-OR-LATINO,0,76.7,164.1,28.5,41.14285714,78,0.189285714,13.21428571,19.78571429
454,454,R2222-HV-1326-840003-018,840003018,90,REGN2222-3mg/kg-IM,IM1B,4,15,15,Day-85,84,83.926,.,.,15.8,2.76000994,mg/L,,0,REGN2222,2,.,.,.,.,.,.,2,.,.,.,.,.,.,0,59,F,0,BLACK,2,NOT-HISPANIC-OR-LATINO,0,76.7,164.1,28.5,41.14285714,78,0.189285714,13.21428571,19.78571429
455,455,R2222-HV-1326-840003-018,840003018,90,REGN2222-3mg/kg-IM,IM1B,4,16,16,Day-113,112,111.93,.,.,10.1,2.312535424,mg/L,,0,REGN2222,2,.,.,.,.,.,.,2,.,.,.,.,.,.,0,59,F,0,BLACK,2,NOT-HISPANIC-OR-LATINO,0,76.7,164.1,28.5,41.14285714,78,0.189285714,13.21428571,19.78571429
456,456,R2222-HV-1326-840003-018,840003018,90,REGN2222-3mg/kg-IM,IM1B,4,17,17,Day-141,140,140,.,.,5.04,1.617406082,mg/L,,0,REGN2222,2,.,.,.,.,.,.,2,.,.,.,.,.,.,0,59,F,0,BLACK,2,NOT-HISPANIC-OR-LATINO,0,76.7,164.1,28.5,41.14285714,78,0.189285714,13.21428571,19.78571429
457,457,R2222-HV-1326-840003-019,840003019,91,REGN2222-3mg/kg-IM,IM1B,4,.,.,.,.,0,.,.,.,.,.,.,1,REGN2222,1,5,2.9745,mg/kg,315,mg,.,1,315,.,2.9745,315,.,.,1,43,M,1,BLACK,2,NOT-HISPANIC-OR-LATINO,0,105.9,183.5,31.5,42.92857143,98.28571429,0.062857143,34.5,29.92857143
458,458,R2222-HV-1326-840003-019,840003019,91,REGN2222-3mg/kg-IM,IM1B,4,4,4,Day-2,1,1,.,.,14.7,2.687847494,mg/L,,0,REGN2222,2,.,.,.,.,.,.,1,.,.,.,.,.,.,0,43,M,1,BLACK,2,NOT-HISPANIC-OR-LATINO,0,105.9,183.5,31.5,42.92857143,98.28571429,0.062857143,34.5,29.92857143
459,459,R2222-HV-1326-840003-019,840003019,91,REGN2222-3mg/kg-IM,IM1B,4,5,5,Day-3,2,2,.,.,24.2,3.186352633,mg/L,,0,REGN2222,2,.,.,.,.,.,.,1,.,.,.,.,.,.,0,43,M,1,BLACK,2,NOT-HISPANIC-OR-LATINO,0,105.9,183.5,31.5,42.92857143,98.28571429,0.062857143,34.5,29.92857143
460,460,R2222-HV-1326-840003-019,840003019,91,REGN2222-3mg/kg-IM,IM1B,4,6,6,Day-8,7,7.0326,.,.,28.8,3.360375387,mg/L,,0,REGN2222,2,.,.,.,.,.,.,1,.,.,.,.,.,.,0,43,M,1,BLACK,2,NOT-HISPANIC-OR-LATINO,0,105.9,183.5,31.5,42.92857143,98.28571429,0.062857143,34.5,29.92857143
461,461,R2222-HV-1326-840003-019,840003019,91,REGN2222-3mg/kg-IM,IM1B,4,7,7,Day-15,14,13.954,.,.,24.5,3.198673118,mg/L,,0,REGN2222,2,.,.,.,.,.,.,1,.,.,.,.,.,.,0,43,M,1,BLACK,2,NOT-HISPANIC-OR-LATINO,0,105.9,183.5,31.5,42.92857143,98.28571429,0.062857143,34.5,29.92857143
462,462,R2222-HV-1326-840003-019,840003019,91,REGN2222-3mg/kg-IM,IM1B,4,9,9,Day-29,28,27.993,.,.,18.6,2.923161581,mg/L,,0,REGN2222,2,.,.,.,.,.,.,1,.,.,.,.,.,.,0,43,M,1,BLACK,2,NOT-HISPANIC-OR-LATINO,0,105.9,183.5,31.5,42.92857143,98.28571429,0.062857143,34.5,29.92857143
463,463,R2222-HV-1326-840003-019,840003019,91,REGN2222-3mg/kg-IM,IM1B,4,.,.,.,.,28,.,.,.,.,.,.,1,REGN2222,1,5,2.9745,mg/kg,315,mg,.,2,315,.,2.9745,315,.,.,1,43,M,1,BLACK,2,NOT-HISPANIC-OR-LATINO,0,105.9,183.5,31.5,42.92857143,98.28571429,0.062857143,34.5,29.92857143
464,464,R2222-HV-1326-840003-019,840003019,91,REGN2222-3mg/kg-IM,IM1B,4,10,10,Day-30,29,29,.,.,33.7,3.517497837,mg/L,,0,REGN2222,2,.,.,.,.,.,.,2,.,.,.,.,.,.,0,43,M,1,BLACK,2,NOT-HISPANIC-OR-LATINO,0,105.9,183.5,31.5,42.92857143,98.28571429,0.062857143,34.5,29.92857143
465,465,R2222-HV-1326-840003-019,840003019,91,REGN2222-3mg/kg-IM,IM1B,4,11,11,Day-31,30,30,.,.,29.3,3.377587516,mg/L,,0,REGN2222,2,.,.,.,.,.,.,2,.,.,.,.,.,.,0,43,M,1,BLACK,2,NOT-HISPANIC-OR-LATINO,0,105.9,183.5,31.5,42.92857143,98.28571429,0.062857143,34.5,29.92857143
466,466,R2222-HV-1326-840003-019,840003019,91,REGN2222-3mg/kg-IM,IM1B,4,12,12,Day-36,35,34.996,.,.,34.3,3.535145354,mg/L,,0,REGN2222,2,.,.,.,.,.,.,2,.,.,.,.,.,.,0,43,M,1,BLACK,2,NOT-HISPANIC-OR-LATINO,0,105.9,183.5,31.5,42.92857143,98.28571429,0.062857143,34.5,29.92857143
467,467,R2222-HV-1326-840003-019,840003019,91,REGN2222-3mg/kg-IM,IM1B,4,13,13,Day-43,42,41.961,.,.,31.5,3.449987546,mg/L,,0,REGN2222,2,.,.,.,.,.,.,2,.,.,.,.,.,.,0,43,M,1,BLACK,2,NOT-HISPANIC-OR-LATINO,0,105.9,183.5,31.5,42.92857143,98.28571429,0.062857143,34.5,29.92857143
468,468,R2222-HV-1326-840003-019,840003019,91,REGN2222-3mg/kg-IM,IM1B,4,14,14,Day-57,56,56.008,.,.,19.2,2.954910279,mg/L,,0,REGN2222,2,.,.,.,.,.,.,2,.,.,.,.,.,.,0,43,M,1,BLACK,2,NOT-HISPANIC-OR-LATINO,0,105.9,183.5,31.5,42.92857143,98.28571429,0.062857143,34.5,29.92857143
469,469,R2222-HV-1326-840003-019,840003019,91,REGN2222-3mg/kg-IM,IM1B,4,15,15,Day-85,84,83.974,.,.,8.5,2.140066163,mg/L,,0,REGN2222,2,.,.,.,.,.,.,2,.,.,.,.,.,.,0,43,M,1,BLACK,2,NOT-HISPANIC-OR-LATINO,0,105.9,183.5,31.5,42.92857143,98.28571429,0.062857143,34.5,29.92857143
470,470,R2222-HV-1326-840003-019,840003019,91,REGN2222-3mg/kg-IM,IM1B,4,16,16,Day-113,112,111.98,.,.,3.34,1.205970807,mg/L,,0,REGN2222,2,.,.,.,.,.,.,2,.,.,.,.,.,.,0,43,M,1,BLACK,2,NOT-HISPANIC-OR-LATINO,0,105.9,183.5,31.5,42.92857143,98.28571429,0.062857143,34.5,29.92857143
471,471,R2222-HV-1326-840003-019,840003019,91,REGN2222-3mg/kg-IM,IM1B,4,17,17,Day-141,140,140.02,.,.,1.46,0.378436436,mg/L,,0,REGN2222,2,.,.,.,.,.,.,2,.,.,.,.,.,.,0,43,M,1,BLACK,2,NOT-HISPANIC-OR-LATINO,0,105.9,183.5,31.5,42.92857143,98.28571429,0.062857143,34.5,29.92857143
472,472,R2222-HV-1326-840003-020,840003020,92,REGN2222-3mg/kg-IM,IM1B,4,.,.,.,.,0,.,.,.,.,.,.,1,REGN2222,1,5,3,mg/kg,210,mg,.,1,210,.,3,210,.,.,1,47,F,0,BLACK,2,NOT-HISPANIC-OR-LATINO,0,70,161,27,43.42857143,84,0.135714286,14.14285714,15.21428571
473,473,R2222-HV-1326-840003-020,840003020,92,REGN2222-3mg/kg-IM,IM1B,4,4,4,Day-2,1,1,.,.,18.8,2.93385687,mg/L,,0,REGN2222,2,.,.,.,.,.,.,1,.,.,.,.,.,.,0,47,F,0,BLACK,2,NOT-HISPANIC-OR-LATINO,0,70,161,27,43.42857143,84,0.135714286,14.14285714,15.21428571
474,474,R2222-HV-1326-840003-020,840003020,92,REGN2222-3mg/kg-IM,IM1B,4,5,5,Day-3,2,2,.,.,29.8,3.394508394,mg/L,,0,REGN2222,2,.,.,.,.,.,.,1,.,.,.,.,.,.,0,47,F,0,BLACK,2,NOT-HISPANIC-OR-LATINO,0,70,161,27,43.42857143,84,0.135714286,14.14285714,15.21428571
475,475,R2222-HV-1326-840003-020,840003020,92,REGN2222-3mg/kg-IM,IM1B,4,6,6,Day-8,7,6.9972,.,.,22.8,3.126760536,mg/L,,0,REGN2222,2,.,.,.,.,.,.,1,.,.,.,.,.,.,0,47,F,0,BLACK,2,NOT-HISPANIC-OR-LATINO,0,70,161,27,43.42857143,84,0.135714286,14.14285714,15.21428571
476,476,R2222-HV-1326-840003-020,840003020,92,REGN2222-3mg/kg-IM,IM1B,4,7,7,Day-15,14,13.967,.,.,16.6,2.809402695,mg/L,,0,REGN2222,2,.,.,.,.,.,.,1,.,.,.,.,.,.,0,47,F,0,BLACK,2,NOT-HISPANIC-OR-LATINO,0,70,161,27,43.42857143,84,0.135714286,14.14285714,15.21428571
477,477,R2222-HV-1326-840003-020,840003020,92,REGN2222-3mg/kg-IM,IM1B,4,9,9,Day-29,28,27.994,.,.,14.8,2.694627181,mg/L,,0,REGN2222,2,.,.,.,.,.,.,1,.,.,.,.,.,.,0,47,F,0,BLACK,2,NOT-HISPANIC-OR-LATINO,0,70,161,27,43.42857143,84,0.135714286,14.14285714,15.21428571
478,478,R2222-HV-1326-840003-020,840003020,92,REGN2222-3mg/kg-IM,IM1B,4,.,.,.,.,28,.,.,.,.,.,.,1,REGN2222,1,5,3,mg/kg,210,mg,.,2,210,.,3,210,.,.,1,47,F,0,BLACK,2,NOT-HISPANIC-OR-LATINO,0,70,161,27,43.42857143,84,0.135714286,14.14285714,15.21428571
479,479,R2222-HV-1326-840003-020,840003020,92,REGN2222-3mg/kg-IM,IM1B,4,10,10,Day-30,29,29,.,.,29.1,3.370738174,mg/L,,0,REGN2222,2,.,.,.,.,.,.,2,.,.,.,.,.,.,0,47,F,0,BLACK,2,NOT-HISPANIC-OR-LATINO,0,70,161,27,43.42857143,84,0.135714286,14.14285714,15.21428571
480,480,R2222-HV-1326-840003-020,840003020,92,REGN2222-3mg/kg-IM,IM1B,4,11,11,Day-31,30,30.001,.,.,46.9,3.848017675,mg/L,,0,REGN2222,2,.,.,.,.,.,.,2,.,.,.,.,.,.,0,47,F,0,BLACK,2,NOT-HISPANIC-OR-LATINO,0,70,161,27,43.42857143,84,0.135714286,14.14285714,15.21428571
481,481,R2222-HV-1326-840003-020,840003020,92,REGN2222-3mg/kg-IM,IM1B,4,12,12,Day-36,35,34.985,.,.,46.6,3.841600541,mg/L,,0,REGN2222,2,.,.,.,.,.,.,2,.,.,.,.,.,.,0,47,F,0,BLACK,2,NOT-HISPANIC-OR-LATINO,0,70,161,27,43.42857143,84,0.135714286,14.14285714,15.21428571
482,482,R2222-HV-1326-840003-020,840003020,92,REGN2222-3mg/kg-IM,IM1B,4,13,13,Day-43,42,41.954,.,.,45.8,3.824284091,mg/L,,0,REGN2222,2,.,.,.,.,.,.,2,.,.,.,.,.,.,0,47,F,0,BLACK,2,NOT-HISPANIC-OR-LATINO,0,70,161,27,43.42857143,84,0.135714286,14.14285714,15.21428571
483,483,R2222-HV-1326-840003-020,840003020,92,REGN2222-3mg/kg-IM,IM1B,4,14,14,Day-57,56,55.994,.,.,22.4,3.109060959,mg/L,,0,REGN2222,2,.,.,.,.,.,.,2,.,.,.,.,.,.,0,47,F,0,BLACK,2,NOT-HISPANIC-OR-LATINO,0,70,161,27,43.42857143,84,0.135714286,14.14285714,15.21428571
484,484,R2222-HV-1326-840003-020,840003020,92,REGN2222-3mg/kg-IM,IM1B,4,15,15,Day-85,84,83.972,.,.,8.26,2.111424588,mg/L,,0,REGN2222,2,.,.,.,.,.,.,2,.,.,.,.,.,.,0,47,F,0,BLACK,2,NOT-HISPANIC-OR-LATINO,0,70,161,27,43.42857143,84,0.135714286,14.14285714,15.21428571
485,485,R2222-HV-1326-840003-020,840003020,92,REGN2222-3mg/kg-IM,IM1B,4,16,16,Day-113,112,111.98,.,.,3.96,1.376244025,mg/L,,0,REGN2222,2,.,.,.,.,.,.,2,.,.,.,.,.,.,0,47,F,0,BLACK,2,NOT-HISPANIC-OR-LATINO,0,70,161,27,43.42857143,84,0.135714286,14.14285714,15.21428571
486,486,R2222-HV-1326-840003-020,840003020,92,REGN2222-3mg/kg-IM,IM1B,4,17,17,Day-141,140,140.03,.,.,1.59,0.463734016,mg/L,,0,REGN2222,2,.,.,.,.,.,.,2,.,.,.,.,.,.,0,47,F,0,BLACK,2,NOT-HISPANIC-OR-LATINO,0,70,161,27,43.42857143,84,0.135714286,14.14285714,15.21428571
487,487,R2222-HV-1326-840003-034,840003034,95,REGN2222-3mg/kg-IM,IM1B,4,.,.,.,.,0,.,.,.,.,.,.,1,REGN2222,1,5,3.152,mg/kg,255,mg,.,1,255,.,3.152,255,.,.,1,41,M,1,BLACK,2,NOT-HISPANIC-OR-LATINO,0,80.9,187.5,23,47,97.64285714,0.132142857,34.71428571,29.07142857
488,488,R2222-HV-1326-840003-034,840003034,95,REGN2222-3mg/kg-IM,IM1B,4,4,4,Day-2,1,1,.,.,6.68,1.899117988,mg/L,,0,REGN2222,2,.,.,.,.,.,.,1,.,.,.,.,.,.,0,41,M,1,BLACK,2,NOT-HISPANIC-OR-LATINO,0,80.9,187.5,23,47,97.64285714,0.132142857,34.71428571,29.07142857
489,489,R2222-HV-1326-840003-034,840003034,95,REGN2222-3mg/kg-IM,IM1B,4,5,5,Day-3,2,2,.,.,11,2.397895273,mg/L,,0,REGN2222,2,.,.,.,.,.,.,1,.,.,.,.,.,.,0,41,M,1,BLACK,2,NOT-HISPANIC-OR-LATINO,0,80.9,187.5,23,47,97.64285714,0.132142857,34.71428571,29.07142857
490,490,R2222-HV-1326-840003-034,840003034,95,REGN2222-3mg/kg-IM,IM1B,4,6,6,Day-8,7,7.0347,.,.,24.8,3.210843653,mg/L,,0,REGN2222,2,.,.,.,.,.,.,1,.,.,.,.,.,.,0,41,M,1,BLACK,2,NOT-HISPANIC-OR-LATINO,0,80.9,187.5,23,47,97.64285714,0.132142857,34.71428571,29.07142857
491,491,R2222-HV-1326-840003-034,840003034,95,REGN2222-3mg/kg-IM,IM1B,4,7,7,Day-15,14,13.951,.,.,24.1,3.18221184,mg/L,,0,REGN2222,2,.,.,.,.,.,.,1,.,.,.,.,.,.,0,41,M,1,BLACK,2,NOT-HISPANIC-OR-LATINO,0,80.9,187.5,23,47,97.64285714,0.132142857,34.71428571,29.07142857
492,492,R2222-HV-1326-840003-034,840003034,95,REGN2222-3mg/kg-IM,IM1B,4,9,9,Day-29,28,27.993,.,.,22,3.091042453,mg/L,,0,REGN2222,2,.,.,.,.,.,.,1,.,.,.,.,.,.,0,41,M,1,BLACK,2,NOT-HISPANIC-OR-LATINO,0,80.9,187.5,23,47,97.64285714,0.132142857,34.71428571,29.07142857
493,493,R2222-HV-1326-840003-034,840003034,95,REGN2222-3mg/kg-IM,IM1B,4,.,.,.,.,28,.,.,.,.,.,.,1,REGN2222,1,5,3.152,mg/kg,255,mg,.,2,255,.,3.152,255,.,.,1,41,M,1,BLACK,2,NOT-HISPANIC-OR-LATINO,0,80.9,187.5,23,47,97.64285714,0.132142857,34.71428571,29.07142857
494,494,R2222-HV-1326-840003-034,840003034,95,REGN2222-3mg/kg-IM,IM1B,4,10,10,Day-30,29,29,.,.,35.5,3.569532696,mg/L,,0,REGN2222,2,.,.,.,.,.,.,2,.,.,.,.,.,.,0,41,M,1,BLACK,2,NOT-HISPANIC-OR-LATINO,0,80.9,187.5,23,47,97.64285714,0.132142857,34.71428571,29.07142857
495,495,R2222-HV-1326-840003-034,840003034,95,REGN2222-3mg/kg-IM,IM1B,4,11,11,Day-31,30,30,.,.,40.5,3.701301974,mg/L,,0,REGN2222,2,.,.,.,.,.,.,2,.,.,.,.,.,.,0,41,M,1,BLACK,2,NOT-HISPANIC-OR-LATINO,0,80.9,187.5,23,47,97.64285714,0.132142857,34.71428571,29.07142857
496,496,R2222-HV-1326-840003-034,840003034,95,REGN2222-3mg/kg-IM,IM1B,4,12,12,Day-36,35,34.983,.,.,51.8,3.947390149,mg/L,,0,REGN2222,2,.,.,.,.,.,.,2,.,.,.,.,.,.,0,41,M,1,BLACK,2,NOT-HISPANIC-OR-LATINO,0,80.9,187.5,23,47,97.64285714,0.132142857,34.71428571,29.07142857
497,497,R2222-HV-1326-840003-034,840003034,95,REGN2222-3mg/kg-IM,IM1B,4,13,13,Day-43,42,41.881,.,.,43.6,3.77505715,mg/L,,0,REGN2222,2,.,.,.,.,.,.,2,.,.,.,.,.,.,0,41,M,1,BLACK,2,NOT-HISPANIC-OR-LATINO,0,80.9,187.5,23,47,97.64285714,0.132142857,34.71428571,29.07142857
498,498,R2222-HV-1326-840003-034,840003034,95,REGN2222-3mg/kg-IM,IM1B,4,14,14,Day-57,56,56.012,.,.,32.1,3.46885603,mg/L,,0,REGN2222,2,.,.,.,.,.,.,2,.,.,.,.,.,.,0,41,M,1,BLACK,2,NOT-HISPANIC-OR-LATINO,0,80.9,187.5,23,47,97.64285714,0.132142857,34.71428571,29.07142857
499,499,R2222-HV-1326-840003-034,840003034,95,REGN2222-3mg/kg-IM,IM1B,4,15,15,Day-85,84,83.952,.,.,12.9,2.557227311,mg/L,,0,REGN2222,2,.,.,.,.,.,.,2,.,.,.,.,.,.,0,41,M,1,BLACK,2,NOT-HISPANIC-OR-LATINO,0,80.9,187.5,23,47,97.64285714,0.132142857,34.71428571,29.07142857
500,500,R2222-HV-1326-840003-034,840003034,95,REGN2222-3mg/kg-IM,IM1B,4,16,16,Day-113,112,111.97,.,.,7.65,2.034705648,mg/L,,0,REGN2222,2,.,.,.,.,.,.,2,.,.,.,.,.,.,0,41,M,1,BLACK,2,NOT-HISPANIC-OR-LATINO,0,80.9,187.5,23,47,97.64285714,0.132142857,34.71428571,29.07142857
501,501,R2222-HV-1326-840003-034,840003034,95,REGN2222-3mg/kg-IM,IM1B,4,17,17,Day-141,140,139.97,.,.,2.83,1.040276712,mg/L,,0,REGN2222,2,.,.,.,.,.,.,2,.,.,.,.,.,.,0,41,M,1,BLACK,2,NOT-HISPANIC-OR-LATINO,0,80.9,187.5,23,47,97.64285714,0.132142857,34.71428571,29.07142857
502,502,R2222-HV-1326-840003-035,840003035,96,REGN2222-3mg/kg-IM,IM1B,4,.,.,.,.,0,.,.,.,.,.,.,1,REGN2222,1,5,2.9817,mg/kg,195,mg,.,1,195,.,2.9817,195,.,.,1,41,F,0,BLACK,2,NOT-HISPANIC-OR-LATINO,0,65.4,163.5,24.5,41.07142857,80.57142857,0.045,10.35714286,13.64285714
503,503,R2222-HV-1326-840003-035,840003035,96,REGN2222-3mg/kg-IM,IM1B,4,4,4,Day-2,1,1,.,.,15.1,2.714694744,mg/L,,0,REGN2222,2,.,.,.,.,.,.,1,.,.,.,.,.,.,0,41,F,0,BLACK,2,NOT-HISPANIC-OR-LATINO,0,65.4,163.5,24.5,41.07142857,80.57142857,0.045,10.35714286,13.64285714
504,504,R2222-HV-1326-840003-035,840003035,96,REGN2222-3mg/kg-IM,IM1B,4,5,5,Day-3,2,2,.,.,23.1,3.139832618,mg/L,,0,REGN2222,2,.,.,.,.,.,.,1,.,.,.,.,.,.,0,41,F,0,BLACK,2,NOT-HISPANIC-OR-LATINO,0,65.4,163.5,24.5,41.07142857,80.57142857,0.045,10.35714286,13.64285714
505,505,R2222-HV-1326-840003-035,840003035,96,REGN2222-3mg/kg-IM,IM1B,4,6,6,Day-8,7,7.0229,.,.,25,3.218875825,mg/L,,0,REGN2222,2,.,.,.,.,.,.,1,.,.,.,.,.,.,0,41,F,0,BLACK,2,NOT-HISPANIC-OR-LATINO,0,65.4,163.5,24.5,41.07142857,80.57142857,0.045,10.35714286,13.64285714
506,506,R2222-HV-1326-840003-035,840003035,96,REGN2222-3mg/kg-IM,IM1B,4,7,7,Day-15,14,13.986,.,.,23.1,3.139832618,mg/L,,0,REGN2222,2,.,.,.,.,.,.,1,.,.,.,.,.,.,0,41,F,0,BLACK,2,NOT-HISPANIC-OR-LATINO,0,65.4,163.5,24.5,41.07142857,80.57142857,0.045,10.35714286,13.64285714
507,507,R2222-HV-1326-840003-035,840003035,96,REGN2222-3mg/kg-IM,IM1B,4,9,9,Day-29,28,27.993,.,.,15.8,2.76000994,mg/L,,0,REGN2222,2,.,.,.,.,.,.,1,.,.,.,.,.,.,0,41,F,0,BLACK,2,NOT-HISPANIC-OR-LATINO,0,65.4,163.5,24.5,41.07142857,80.57142857,0.045,10.35714286,13.64285714
508,508,R2222-HV-1326-840003-035,840003035,96,REGN2222-3mg/kg-IM,IM1B,4,.,.,.,.,28,.,.,.,.,.,.,1,REGN2222,1,5,2.9817,mg/kg,195,mg,.,2,195,.,2.9817,195,.,.,1,41,F,0,BLACK,2,NOT-HISPANIC-OR-LATINO,0,65.4,163.5,24.5,41.07142857,80.57142857,0.045,10.35714286,13.64285714
509,509,R2222-HV-1326-840003-035,840003035,96,REGN2222-3mg/kg-IM,IM1B,4,10,10,Day-30,29,29,.,.,27.7,3.321432413,mg/L,,0,REGN2222,2,.,.,.,.,.,.,2,.,.,.,.,.,.,0,41,F,0,BLACK,2,NOT-HISPANIC-OR-LATINO,0,65.4,163.5,24.5,41.07142857,80.57142857,0.045,10.35714286,13.64285714
510,510,R2222-HV-1326-840003-035,840003035,96,REGN2222-3mg/kg-IM,IM1B,4,11,11,Day-31,30,30,.,.,37.9,3.634951112,mg/L,,0,REGN2222,2,.,.,.,.,.,.,2,.,.,.,.,.,.,0,41,F,0,BLACK,2,NOT-HISPANIC-OR-LATINO,0,65.4,163.5,24.5,41.07142857,80.57142857,0.045,10.35714286,13.64285714
511,511,R2222-HV-1326-840003-035,840003035,96,REGN2222-3mg/kg-IM,IM1B,4,12,12,Day-36,35,34.992,.,.,39.3,3.671224519,mg/L,,0,REGN2222,2,.,.,.,.,.,.,2,.,.,.,.,.,.,0,41,F,0,BLACK,2,NOT-HISPANIC-OR-LATINO,0,65.4,163.5,24.5,41.07142857,80.57142857,0.045,10.35714286,13.64285714
512,512,R2222-HV-1326-840003-035,840003035,96,REGN2222-3mg/kg-IM,IM1B,4,13,13,Day-43,42,41.969,.,.,30.5,3.417726684,mg/L,,0,REGN2222,2,.,.,.,.,.,.,2,.,.,.,.,.,.,0,41,F,0,BLACK,2,NOT-HISPANIC-OR-LATINO,0,65.4,163.5,24.5,41.07142857,80.57142857,0.045,10.35714286,13.64285714
513,513,R2222-HV-1326-840003-035,840003035,96,REGN2222-3mg/kg-IM,IM1B,4,14,14,Day-57,56,56.017,.,.,21.5,3.068052935,mg/L,,0,REGN2222,2,.,.,.,.,.,.,2,.,.,.,.,.,.,0,41,F,0,BLACK,2,NOT-HISPANIC-OR-LATINO,0,65.4,163.5,24.5,41.07142857,80.57142857,0.045,10.35714286,13.64285714
514,514,R2222-HV-1326-840003-035,840003035,96,REGN2222-3mg/kg-IM,IM1B,4,15,15,Day-85,84,83.993,.,.,8.6,2.151762203,mg/L,,0,REGN2222,2,.,.,.,.,.,.,2,.,.,.,.,.,.,0,41,F,0,BLACK,2,NOT-HISPANIC-OR-LATINO,0,65.4,163.5,24.5,41.07142857,80.57142857,0.045,10.35714286,13.64285714
515,515,R2222-HV-1326-840003-035,840003035,96,REGN2222-3mg/kg-IM,IM1B,4,16,16,Day-113,112,111.95,.,.,4.52,1.508511994,mg/L,,0,REGN2222,2,.,.,.,.,.,.,2,.,.,.,.,.,.,0,41,F,0,BLACK,2,NOT-HISPANIC-OR-LATINO,0,65.4,163.5,24.5,41.07142857,80.57142857,0.045,10.35714286,13.64285714
516,516,R2222-HV-1326-840003-035,840003035,96,REGN2222-3mg/kg-IM,IM1B,4,17,17,Day-141,140,139.97,.,.,1.66,0.506817602,mg/L,,0,REGN2222,2,.,.,.,.,.,.,2,.,.,.,.,.,.,0,41,F,0,BLACK,2,NOT-HISPANIC-OR-LATINO,0,65.4,163.5,24.5,41.07142857,80.57142857,0.045,10.35714286,13.64285714
517,517,R2222-HV-1326-840003-039,840003039,97,REGN2222-3mg/kg-IM,IM1B,4,.,.,.,.,0,.,.,.,.,.,.,1,REGN2222,1,5,3.0067,mg/kg,135,mg,.,1,135,.,3.0067,135,.,.,1,48,F,0,WHITE,1,NOT-HISPANIC-OR-LATINO,0,44.9,156.3,18.4,43.85714286,67.78571429,0.069285714,14.78571429,17
518,518,R2222-HV-1326-840003-039,840003039,97,REGN2222-3mg/kg-IM,IM1B,4,4,4,Day-2,1,1,.,.,8.12,2.094330154,mg/L,,0,REGN2222,2,.,.,.,.,.,.,1,.,.,.,.,.,.,0,48,F,0,WHITE,1,NOT-HISPANIC-OR-LATINO,0,44.9,156.3,18.4,43.85714286,67.78571429,0.069285714,14.78571429,17
519,519,R2222-HV-1326-840003-039,840003039,97,REGN2222-3mg/kg-IM,IM1B,4,5,5,Day-3,2,2,.,.,11.1,2.406945108,mg/L,,0,REGN2222,2,.,.,.,.,.,.,1,.,.,.,.,.,.,0,48,F,0,WHITE,1,NOT-HISPANIC-OR-LATINO,0,44.9,156.3,18.4,43.85714286,67.78571429,0.069285714,14.78571429,17
520,520,R2222-HV-1326-840003-039,840003039,97,REGN2222-3mg/kg-IM,IM1B,4,6,6,Day-8,7,6.9354,.,.,21.8,3.08190997,mg/L,,0,REGN2222,2,.,.,.,.,.,.,1,.,.,.,.,.,.,0,48,F,0,WHITE,1,NOT-HISPANIC-OR-LATINO,0,44.9,156.3,18.4,43.85714286,67.78571429,0.069285714,14.78571429,17
521,521,R2222-HV-1326-840003-039,840003039,97,REGN2222-3mg/kg-IM,IM1B,4,7,7,Day-15,14,13.94,.,.,21,3.044522438,mg/L,,0,REGN2222,2,.,.,.,.,.,.,1,.,.,.,.,.,.,0,48,F,0,WHITE,1,NOT-HISPANIC-OR-LATINO,0,44.9,156.3,18.4,43.85714286,67.78571429,0.069285714,14.78571429,17
522,522,R2222-HV-1326-840003-039,840003039,97,REGN2222-3mg/kg-IM,IM1B,4,9,9,Day-29,28,27.993,.,.,18.2,2.901421594,mg/L,,0,REGN2222,2,.,.,.,.,.,.,1,.,.,.,.,.,.,0,48,F,0,WHITE,1,NOT-HISPANIC-OR-LATINO,0,44.9,156.3,18.4,43.85714286,67.78571429,0.069285714,14.78571429,17
523,523,R2222-HV-1326-840003-039,840003039,97,REGN2222-3mg/kg-IM,IM1B,4,.,.,.,.,28,.,.,.,.,.,.,1,REGN2222,1,5,3.0067,mg/kg,135,mg,.,2,135,.,3.0067,135,.,.,1,48,F,0,WHITE,1,NOT-HISPANIC-OR-LATINO,0,44.9,156.3,18.4,43.85714286,67.78571429,0.069285714,14.78571429,17
524,524,R2222-HV-1326-840003-039,840003039,97,REGN2222-3mg/kg-IM,IM1B,4,10,10,Day-30,29,29,.,.,22.1,3.095577609,mg/L,,0,REGN2222,2,.,.,.,.,.,.,2,.,.,.,.,.,.,0,48,F,0,WHITE,1,NOT-HISPANIC-OR-LATINO,0,44.9,156.3,18.4,43.85714286,67.78571429,0.069285714,14.78571429,17
525,525,R2222-HV-1326-840003-039,840003039,97,REGN2222-3mg/kg-IM,IM1B,4,11,11,Day-31,30,30,.,.,27,3.295836866,mg/L,,0,REGN2222,2,.,.,.,.,.,.,2,.,.,.,.,.,.,0,48,F,0,WHITE,1,NOT-HISPANIC-OR-LATINO,0,44.9,156.3,18.4,43.85714286,67.78571429,0.069285714,14.78571429,17
526,526,R2222-HV-1326-840003-039,840003039,97,REGN2222-3mg/kg-IM,IM1B,4,12,12,Day-36,35,34.967,.,.,40.5,3.701301974,mg/L,,0,REGN2222,2,.,.,.,.,.,.,2,.,.,.,.,.,.,0,48,F,0,WHITE,1,NOT-HISPANIC-OR-LATINO,0,44.9,156.3,18.4,43.85714286,67.78571429,0.069285714,14.78571429,17
527,527,R2222-HV-1326-840003-039,840003039,97,REGN2222-3mg/kg-IM,IM1B,4,13,13,Day-43,42,41.948,.,.,36.8,3.605497845,mg/L,,0,REGN2222,2,.,.,.,.,.,.,2,.,.,.,.,.,.,0,48,F,0,WHITE,1,NOT-HISPANIC-OR-LATINO,0,44.9,156.3,18.4,43.85714286,67.78571429,0.069285714,14.78571429,17
528,528,R2222-HV-1326-840003-039,840003039,97,REGN2222-3mg/kg-IM,IM1B,4,14,14,Day-57,56,55.978,.,.,25.2,3.226843995,mg/L,,0,REGN2222,2,.,.,.,.,.,.,2,.,.,.,.,.,.,0,48,F,0,WHITE,1,NOT-HISPANIC-OR-LATINO,0,44.9,156.3,18.4,43.85714286,67.78571429,0.069285714,14.78571429,17
529,529,R2222-HV-1326-840003-039,840003039,97,REGN2222-3mg/kg-IM,IM1B,4,15,15,Day-85,84,83.964,.,.,13,2.564949357,mg/L,,0,REGN2222,2,.,.,.,.,.,.,2,.,.,.,.,.,.,0,48,F,0,WHITE,1,NOT-HISPANIC-OR-LATINO,0,44.9,156.3,18.4,43.85714286,67.78571429,0.069285714,14.78571429,17
530,530,R2222-HV-1326-840003-039,840003039,97,REGN2222-3mg/kg-IM,IM1B,4,16,16,Day-113,112,111.94,.,.,8.04,2.084429083,mg/L,,0,REGN2222,2,.,.,.,.,.,.,2,.,.,.,.,.,.,0,48,F,0,WHITE,1,NOT-HISPANIC-OR-LATINO,0,44.9,156.3,18.4,43.85714286,67.78571429,0.069285714,14.78571429,17
531,531,R2222-HV-1326-840003-039,840003039,97,REGN2222-3mg/kg-IM,IM1B,4,17,17,Day-141,140,139.96,.,.,5.41,1.688249093,mg/L,,0,REGN2222,2,.,.,.,.,.,.,2,.,.,.,.,.,.,0,48,F,0,WHITE,1,NOT-HISPANIC-OR-LATINO,0,44.9,156.3,18.4,43.85714286,67.78571429,0.069285714,14.78571429,17
532,532,R2222-HV-1326-840003-046,840003046,98,REGN2222-3mg/kg-IM,IM1B,4,.,.,.,.,0,.,.,.,.,.,.,1,REGN2222,1,5,3.1196,mg/kg,180,mg,.,1,180,.,3.1196,180,.,.,1,28,F,0,BLACK,2,NOT-HISPANIC-OR-LATINO,0,57.7,164.9,21.2,40.64285714,68.42857143,0.030714286,6.857142857,13.42857143
533,533,R2222-HV-1326-840003-046,840003046,98,REGN2222-3mg/kg-IM,IM1B,4,4,4,Day-2,1,1,.,.,13.5,2.602689685,mg/L,,0,REGN2222,2,.,.,.,.,.,.,1,.,.,.,.,.,.,0,28,F,0,BLACK,2,NOT-HISPANIC-OR-LATINO,0,57.7,164.9,21.2,40.64285714,68.42857143,0.030714286,6.857142857,13.42857143
534,534,R2222-HV-1326-840003-046,840003046,98,REGN2222-3mg/kg-IM,IM1B,4,5,5,Day-3,2,2,.,.,21.2,3.054001182,mg/L,,0,REGN2222,2,.,.,.,.,.,.,1,.,.,.,.,.,.,0,28,F,0,BLACK,2,NOT-HISPANIC-OR-LATINO,0,57.7,164.9,21.2,40.64285714,68.42857143,0.030714286,6.857142857,13.42857143
535,535,R2222-HV-1326-840003-046,840003046,98,REGN2222-3mg/kg-IM,IM1B,4,6,6,Day-8,7,7.0326,.,.,23.3,3.148453361,mg/L,,0,REGN2222,2,.,.,.,.,.,.,1,.,.,.,.,.,.,0,28,F,0,BLACK,2,NOT-HISPANIC-OR-LATINO,0,57.7,164.9,21.2,40.64285714,68.42857143,0.030714286,6.857142857,13.42857143
536,536,R2222-HV-1326-840003-046,840003046,98,REGN2222-3mg/kg-IM,IM1B,4,7,7,Day-15,14,14.022,.,.,17.3,2.850706502,mg/L,,0,REGN2222,2,.,.,.,.,.,.,1,.,.,.,.,.,.,0,28,F,0,BLACK,2,NOT-HISPANIC-OR-LATINO,0,57.7,164.9,21.2,40.64285714,68.42857143,0.030714286,6.857142857,13.42857143
537,537,R2222-HV-1326-840003-046,840003046,98,REGN2222-3mg/kg-IM,IM1B,4,9,9,Day-29,28,27.993,.,.,14,2.63905733,mg/L,,0,REGN2222,2,.,.,.,.,.,.,1,.,.,.,.,.,.,0,28,F,0,BLACK,2,NOT-HISPANIC-OR-LATINO,0,57.7,164.9,21.2,40.64285714,68.42857143,0.030714286,6.857142857,13.42857143
538,538,R2222-HV-1326-840003-046,840003046,98,REGN2222-3mg/kg-IM,IM1B,4,.,.,.,.,28,.,.,.,.,.,.,1,REGN2222,1,5,3.1196,mg/kg,180,mg,.,2,180,.,3.1196,180,.,.,1,28,F,0,BLACK,2,NOT-HISPANIC-OR-LATINO,0,57.7,164.9,21.2,40.64285714,68.42857143,0.030714286,6.857142857,13.42857143
539,539,R2222-HV-1326-840003-046,840003046,98,REGN2222-3mg/kg-IM,IM1B,4,10,10,Day-30,29,29,.,.,25.3,3.230804396,mg/L,,0,REGN2222,2,.,.,.,.,.,.,2,.,.,.,.,.,.,0,28,F,0,BLACK,2,NOT-HISPANIC-OR-LATINO,0,57.7,164.9,21.2,40.64285714,68.42857143,0.030714286,6.857142857,13.42857143
540,540,R2222-HV-1326-840003-046,840003046,98,REGN2222-3mg/kg-IM,IM1B,4,11,11,Day-31,30,30,.,.,44.8,3.802208139,mg/L,,0,REGN2222,2,.,.,.,.,.,.,2,.,.,.,.,.,.,0,28,F,0,BLACK,2,NOT-HISPANIC-OR-LATINO,0,57.7,164.9,21.2,40.64285714,68.42857143,0.030714286,6.857142857,13.42857143
541,541,R2222-HV-1326-840003-046,840003046,98,REGN2222-3mg/kg-IM,IM1B,4,12,12,Day-36,35,34.992,.,.,33.1,3.499533282,mg/L,,0,REGN2222,2,.,.,.,.,.,.,2,.,.,.,.,.,.,0,28,F,0,BLACK,2,NOT-HISPANIC-OR-LATINO,0,57.7,164.9,21.2,40.64285714,68.42857143,0.030714286,6.857142857,13.42857143
542,542,R2222-HV-1326-840003-046,840003046,98,REGN2222-3mg/kg-IM,IM1B,4,13,13,Day-43,42,41.96,.,.,28,3.33220451,mg/L,,0,REGN2222,2,.,.,.,.,.,.,2,.,.,.,.,.,.,0,28,F,0,BLACK,2,NOT-HISPANIC-OR-LATINO,0,57.7,164.9,21.2,40.64285714,68.42857143,0.030714286,6.857142857,13.42857143
543,543,R2222-HV-1326-840003-046,840003046,98,REGN2222-3mg/kg-IM,IM1B,4,14,14,Day-57,56,55.983,.,.,21.5,3.068052935,mg/L,,0,REGN2222,2,.,.,.,.,.,.,2,.,.,.,.,.,.,0,28,F,0,BLACK,2,NOT-HISPANIC-OR-LATINO,0,57.7,164.9,21.2,40.64285714,68.42857143,0.030714286,6.857142857,13.42857143
544,544,R2222-HV-1326-840003-046,840003046,98,REGN2222-3mg/kg-IM,IM1B,4,15,15,Day-85,84,83.983,.,.,5.79,1.756132292,mg/L,,0,REGN2222,2,.,.,.,.,.,.,2,.,.,.,.,.,.,0,28,F,0,BLACK,2,NOT-HISPANIC-OR-LATINO,0,57.7,164.9,21.2,40.64285714,68.42857143,0.030714286,6.857142857,13.42857143
545,545,R2222-HV-1326-840003-046,840003046,98,REGN2222-3mg/kg-IM,IM1B,4,16,16,Day-113,112,111.97,.,.,2.63,0.966983846,mg/L,,0,REGN2222,2,.,.,.,.,.,.,2,.,.,.,.,.,.,0,28,F,0,BLACK,2,NOT-HISPANIC-OR-LATINO,0,57.7,164.9,21.2,40.64285714,68.42857143,0.030714286,6.857142857,13.42857143
546,546,R2222-HV-1326-840003-046,840003046,98,REGN2222-3mg/kg-IM,IM1B,4,17,17,Day-141,140,140.01,.,.,0.93,-0.072570693,mg/L,,0,REGN2222,2,.,.,.,.,.,.,2,.,.,.,.,.,.,0,28,F,0,BLACK,2,NOT-HISPANIC-OR-LATINO,0,57.7,164.9,21.2,40.64285714,68.42857143,0.030714286,6.857142857,13.42857143
547,547,R2222-HV-1326-840003-055,840003055,100,REGN2222-3mg/kg-IM,IM1B,4,.,.,.,.,0,.,.,.,.,.,.,1,REGN2222,1,5,3.0709,mg/kg,195,mg,.,1,195,.,3.0709,195,.,.,1,20,M,1,WHITE,1,HISPANIC-OR-LATINO,1,63.5,167.5,22.6,48.28571429,79.21428571,0.047142857,13.92857143,19.64285714
548,548,R2222-HV-1326-840003-055,840003055,100,REGN2222-3mg/kg-IM,IM1B,4,4,4,Day-2,1,0.99653,.,.,17.9,2.884800713,mg/L,,0,REGN2222,2,.,.,.,.,.,.,1,.,.,.,.,.,.,0,20,M,1,WHITE,1,HISPANIC-OR-LATINO,1,63.5,167.5,22.6,48.28571429,79.21428571,0.047142857,13.92857143,19.64285714
549,549,R2222-HV-1326-840003-055,840003055,100,REGN2222-3mg/kg-IM,IM1B,4,5,5,Day-3,2,2,.,.,24.7,3.206803244,mg/L,,0,REGN2222,2,.,.,.,.,.,.,1,.,.,.,.,.,.,0,20,M,1,WHITE,1,HISPANIC-OR-LATINO,1,63.5,167.5,22.6,48.28571429,79.21428571,0.047142857,13.92857143,19.64285714
550,550,R2222-HV-1326-840003-055,840003055,100,REGN2222-3mg/kg-IM,IM1B,4,6,6,Day-8,7,6.9778,.,.,28.9,3.363841595,mg/L,,0,REGN2222,2,.,.,.,.,.,.,1,.,.,.,.,.,.,0,20,M,1,WHITE,1,HISPANIC-OR-LATINO,1,63.5,167.5,22.6,48.28571429,79.21428571,0.047142857,13.92857143,19.64285714
551,551,R2222-HV-1326-840003-055,840003055,100,REGN2222-3mg/kg-IM,IM1B,4,7,7,Day-15,14,13.974,.,.,26,3.258096538,mg/L,,0,REGN2222,2,.,.,.,.,.,.,1,.,.,.,.,.,.,0,20,M,1,WHITE,1,HISPANIC-OR-LATINO,1,63.5,167.5,22.6,48.28571429,79.21428571,0.047142857,13.92857143,19.64285714
552,552,R2222-HV-1326-840003-055,840003055,100,REGN2222-3mg/kg-IM,IM1B,4,9,9,Day-29,28,27.993,.,.,16.8,2.821378886,mg/L,,0,REGN2222,2,.,.,.,.,.,.,1,.,.,.,.,.,.,0,20,M,1,WHITE,1,HISPANIC-OR-LATINO,1,63.5,167.5,22.6,48.28571429,79.21428571,0.047142857,13.92857143,19.64285714
553,553,R2222-HV-1326-840003-055,840003055,100,REGN2222-3mg/kg-IM,IM1B,4,.,.,.,.,28,.,.,.,.,.,.,1,REGN2222,1,5,3.0709,mg/kg,195,mg,.,2,195,.,3.0709,195,.,.,1,20,M,1,WHITE,1,HISPANIC-OR-LATINO,1,63.5,167.5,22.6,48.28571429,79.21428571,0.047142857,13.92857143,19.64285714
554,554,R2222-HV-1326-840003-055,840003055,100,REGN2222-3mg/kg-IM,IM1B,4,10,10,Day-30,29,29,.,.,37.2,3.616308761,mg/L,,0,REGN2222,2,.,.,.,.,.,.,2,.,.,.,.,.,.,0,20,M,1,WHITE,1,HISPANIC-OR-LATINO,1,63.5,167.5,22.6,48.28571429,79.21428571,0.047142857,13.92857143,19.64285714
555,555,R2222-HV-1326-840003-055,840003055,100,REGN2222-3mg/kg-IM,IM1B,4,11,11,Day-31,30,30,.,.,43.6,3.77505715,mg/L,,0,REGN2222,2,.,.,.,.,.,.,2,.,.,.,.,.,.,0,20,M,1,WHITE,1,HISPANIC-OR-LATINO,1,63.5,167.5,22.6,48.28571429,79.21428571,0.047142857,13.92857143,19.64285714
556,556,R2222-HV-1326-840003-055,840003055,100,REGN2222-3mg/kg-IM,IM1B,4,12,12,Day-36,35,34.981,.,.,46.2,3.832979798,mg/L,,0,REGN2222,2,.,.,.,.,.,.,2,.,.,.,.,.,.,0,20,M,1,WHITE,1,HISPANIC-OR-LATINO,1,63.5,167.5,22.6,48.28571429,79.21428571,0.047142857,13.92857143,19.64285714
557,557,R2222-HV-1326-840003-055,840003055,100,REGN2222-3mg/kg-IM,IM1B,4,13,13,Day-43,42,41.99,.,.,45.4,3.815512105,mg/L,,0,REGN2222,2,.,.,.,.,.,.,2,.,.,.,.,.,.,0,20,M,1,WHITE,1,HISPANIC-OR-LATINO,1,63.5,167.5,22.6,48.28571429,79.21428571,0.047142857,13.92857143,19.64285714
558,558,R2222-HV-1326-840003-055,840003055,100,REGN2222-3mg/kg-IM,IM1B,4,14,14,Day-57,56,55.981,.,.,33.7,3.517497837,mg/L,,0,REGN2222,2,.,.,.,.,.,.,2,.,.,.,.,.,.,0,20,M,1,WHITE,1,HISPANIC-OR-LATINO,1,63.5,167.5,22.6,48.28571429,79.21428571,0.047142857,13.92857143,19.64285714
559,559,R2222-HV-1326-840003-055,840003055,100,REGN2222-3mg/kg-IM,IM1B,4,15,15,Day-85,84,82.995,.,.,13.3,2.587764035,mg/L,,0,REGN2222,2,.,.,.,.,.,.,2,.,.,.,.,.,.,0,20,M,1,WHITE,1,HISPANIC-OR-LATINO,1,63.5,167.5,22.6,48.28571429,79.21428571,0.047142857,13.92857143,19.64285714
560,560,R2222-HV-1326-840003-055,840003055,100,REGN2222-3mg/kg-IM,IM1B,4,16,16,Day-113,112,112.02,.,.,7.95,2.073171929,mg/L,,0,REGN2222,2,.,.,.,.,.,.,2,.,.,.,.,.,.,0,20,M,1,WHITE,1,HISPANIC-OR-LATINO,1,63.5,167.5,22.6,48.28571429,79.21428571,0.047142857,13.92857143,19.64285714
561,561,R2222-HV-1326-840003-055,840003055,100,REGN2222-3mg/kg-IM,IM1B,4,17,17,Day-141,140,139.99,.,.,4.01,1.388791241,mg/L,,0,REGN2222,2,.,.,.,.,.,.,2,.,.,.,.,.,.,0,20,M,1,WHITE,1,HISPANIC-OR-LATINO,1,63.5,167.5,22.6,48.28571429,79.21428571,0.047142857,13.92857143,19.64285714
562,562,R2222-HV-1326-840003-067,840003067,102,REGN2222-3mg/kg-IM,IM1B,4,.,.,.,.,0,.,.,.,.,.,.,1,REGN2222,1,5,3.078,mg/kg,225,mg,.,1,225,.,3.078,225,.,.,1,42,F,0,BLACK,2,NOT-HISPANIC-OR-LATINO,0,73.1,166.8,26.3,40.08333333,83.41666667,0.1825,14,18.16666667
563,563,R2222-HV-1326-840003-067,840003067,102,REGN2222-3mg/kg-IM,IM1B,4,4,4,Day-2,1,1,.,.,16.3,2.791165108,mg/L,,0,REGN2222,2,.,.,.,.,.,.,1,.,.,.,.,.,.,0,42,F,0,BLACK,2,NOT-HISPANIC-OR-LATINO,0,73.1,166.8,26.3,40.08333333,83.41666667,0.1825,14,18.16666667
564,564,R2222-HV-1326-840003-067,840003067,102,REGN2222-3mg/kg-IM,IM1B,4,5,5,Day-3,2,2,.,.,23.3,3.148453361,mg/L,,0,REGN2222,2,.,.,.,.,.,.,1,.,.,.,.,.,.,0,42,F,0,BLACK,2,NOT-HISPANIC-OR-LATINO,0,73.1,166.8,26.3,40.08333333,83.41666667,0.1825,14,18.16666667
565,565,R2222-HV-1326-840003-067,840003067,102,REGN2222-3mg/kg-IM,IM1B,4,6,6,Day-8,7,6.9861,.,.,28.3,3.342861805,mg/L,,0,REGN2222,2,.,.,.,.,.,.,1,.,.,.,.,.,.,0,42,F,0,BLACK,2,NOT-HISPANIC-OR-LATINO,0,73.1,166.8,26.3,40.08333333,83.41666667,0.1825,14,18.16666667
566,566,R2222-HV-1326-840003-067,840003067,102,REGN2222-3mg/kg-IM,IM1B,4,7,7,Day-15,14,14,.,.,23.6,3.161246712,mg/L,,0,REGN2222,2,.,.,.,.,.,.,1,.,.,.,.,.,.,0,42,F,0,BLACK,2,NOT-HISPANIC-OR-LATINO,0,73.1,166.8,26.3,40.08333333,83.41666667,0.1825,14,18.16666667
567,567,R2222-HV-1326-840003-067,840003067,102,REGN2222-3mg/kg-IM,IM1B,4,12,12,Day-36,35,34.973,.,.,13,2.564949357,mg/L,,0,REGN2222,2,.,.,.,.,.,.,1,.,.,.,.,.,.,0,42,F,0,BLACK,2,NOT-HISPANIC-OR-LATINO,0,73.1,166.8,26.3,40.08333333,83.41666667,0.1825,14,18.16666667
568,568,R2222-HV-1326-840003-067,840003067,102,REGN2222-3mg/kg-IM,IM1B,4,13,13,Day-43,42,41.969,.,.,13.9,2.63188884,mg/L,,0,REGN2222,2,.,.,.,.,.,.,1,.,.,.,.,.,.,0,42,F,0,BLACK,2,NOT-HISPANIC-OR-LATINO,0,73.1,166.8,26.3,40.08333333,83.41666667,0.1825,14,18.16666667
569,569,R2222-HV-1326-840003-067,840003067,102,REGN2222-3mg/kg-IM,IM1B,4,14,14,Day-57,56,55.982,.,.,9.76,2.2782924,mg/L,,0,REGN2222,2,.,.,.,.,.,.,1,.,.,.,.,.,.,0,42,F,0,BLACK,2,NOT-HISPANIC-OR-LATINO,0,73.1,166.8,26.3,40.08333333,83.41666667,0.1825,14,18.16666667
570,570,R2222-HV-1326-840003-067,840003067,102,REGN2222-3mg/kg-IM,IM1B,4,15,15,Day-85,84,83.976,.,.,3.68,1.302912752,mg/L,,0,REGN2222,2,.,.,.,.,.,.,1,.,.,.,.,.,.,0,42,F,0,BLACK,2,NOT-HISPANIC-OR-LATINO,0,73.1,166.8,26.3,40.08333333,83.41666667,0.1825,14,18.16666667
571,571,R2222-HV-1326-840003-067,840003067,102,REGN2222-3mg/kg-IM,IM1B,4,16,16,Day-113,112,112,.,.,2.06,0.722705983,mg/L,,0,REGN2222,2,.,.,.,.,.,.,1,.,.,.,.,.,.,0,42,F,0,BLACK,2,NOT-HISPANIC-OR-LATINO,0,73.1,166.8,26.3,40.08333333,83.41666667,0.1825,14,18.16666667
572,572,R2222-HV-1326-840003-067,840003067,102,REGN2222-3mg/kg-IM,IM1B,4,17,17,Day-141,140,140,.,.,0.941,-0.060812139,mg/L,,0,REGN2222,2,.,.,.,.,.,.,1,.,.,.,.,.,.,0,42,F,0,BLACK,2,NOT-HISPANIC-OR-LATINO,0,73.1,166.8,26.3,40.08333333,83.41666667,0.1825,14,18.16666667
573,573,R2222-HV-1326-840003-077,840003077,107,REGN2222-3mg/kg-IM,IM1B,4,.,.,.,.,0,.,.,.,.,.,.,1,REGN2222,1,5,3.0216,mg/kg,210,mg,.,1,210,.,3.0216,210,.,.,1,25,M,1,WHITE,1,HISPANIC-OR-LATINO,1,69.5,174.5,22.8,46.78571429,71.57142857,0.183571429,32.57142857,22.28571429
574,574,R2222-HV-1326-840003-077,840003077,107,REGN2222-3mg/kg-IM,IM1B,4,4,4,Day-2,1,1,.,.,7.8,2.054123734,mg/L,,0,REGN2222,2,.,.,.,.,.,.,1,.,.,.,.,.,.,0,25,M,1,WHITE,1,HISPANIC-OR-LATINO,1,69.5,174.5,22.8,46.78571429,71.57142857,0.183571429,32.57142857,22.28571429
575,575,R2222-HV-1326-840003-077,840003077,107,REGN2222-3mg/kg-IM,IM1B,4,5,5,Day-3,2,2,.,.,17.1,2.839078464,mg/L,,0,REGN2222,2,.,.,.,.,.,.,1,.,.,.,.,.,.,0,25,M,1,WHITE,1,HISPANIC-OR-LATINO,1,69.5,174.5,22.8,46.78571429,71.57142857,0.183571429,32.57142857,22.28571429
576,576,R2222-HV-1326-840003-077,840003077,107,REGN2222-3mg/kg-IM,IM1B,4,6,6,Day-8,7,6.9674,.,.,26.5,3.277144733,mg/L,,0,REGN2222,2,.,.,.,.,.,.,1,.,.,.,.,.,.,0,25,M,1,WHITE,1,HISPANIC-OR-LATINO,1,69.5,174.5,22.8,46.78571429,71.57142857,0.183571429,32.57142857,22.28571429
577,577,R2222-HV-1326-840003-077,840003077,107,REGN2222-3mg/kg-IM,IM1B,4,7,7,Day-15,14,13.958,.,.,21.5,3.068052935,mg/L,,0,REGN2222,2,.,.,.,.,.,.,1,.,.,.,.,.,.,0,25,M,1,WHITE,1,HISPANIC-OR-LATINO,1,69.5,174.5,22.8,46.78571429,71.57142857,0.183571429,32.57142857,22.28571429
578,578,R2222-HV-1326-840003-077,840003077,107,REGN2222-3mg/kg-IM,IM1B,4,9,9,Day-29,28,27.993,.,.,25.8,3.250374492,mg/L,,0,REGN2222,2,.,.,.,.,.,.,1,.,.,.,.,.,.,0,25,M,1,WHITE,1,HISPANIC-OR-LATINO,1,69.5,174.5,22.8,46.78571429,71.57142857,0.183571429,32.57142857,22.28571429
579,579,R2222-HV-1326-840003-077,840003077,107,REGN2222-3mg/kg-IM,IM1B,4,.,.,.,.,28,.,.,.,.,.,.,1,REGN2222,1,5,3.0216,mg/kg,210,mg,.,2,210,.,3.0216,210,.,.,1,25,M,1,WHITE,1,HISPANIC-OR-LATINO,1,69.5,174.5,22.8,46.78571429,71.57142857,0.183571429,32.57142857,22.28571429
580,580,R2222-HV-1326-840003-077,840003077,107,REGN2222-3mg/kg-IM,IM1B,4,10,10,Day-30,29,29,.,.,40.5,3.701301974,mg/L,,0,REGN2222,2,.,.,.,.,.,.,2,.,.,.,.,.,.,0,25,M,1,WHITE,1,HISPANIC-OR-LATINO,1,69.5,174.5,22.8,46.78571429,71.57142857,0.183571429,32.57142857,22.28571429
581,581,R2222-HV-1326-840003-077,840003077,107,REGN2222-3mg/kg-IM,IM1B,4,11,11,Day-31,30,30,.,.,38,3.63758616,mg/L,,0,REGN2222,2,.,.,.,.,.,.,2,.,.,.,.,.,.,0,25,M,1,WHITE,1,HISPANIC-OR-LATINO,1,69.5,174.5,22.8,46.78571429,71.57142857,0.183571429,32.57142857,22.28571429
582,582,R2222-HV-1326-840003-077,840003077,107,REGN2222-3mg/kg-IM,IM1B,4,12,12,Day-36,35,34.985,.,.,49.6,3.903990834,mg/L,,0,REGN2222,2,.,.,.,.,.,.,2,.,.,.,.,.,.,0,25,M,1,WHITE,1,HISPANIC-OR-LATINO,1,69.5,174.5,22.8,46.78571429,71.57142857,0.183571429,32.57142857,22.28571429
583,583,R2222-HV-1326-840003-077,840003077,107,REGN2222-3mg/kg-IM,IM1B,4,13,13,Day-43,42,41.969,.,.,49,3.891820298,mg/L,,0,REGN2222,2,.,.,.,.,.,.,2,.,.,.,.,.,.,0,25,M,1,WHITE,1,HISPANIC-OR-LATINO,1,69.5,174.5,22.8,46.78571429,71.57142857,0.183571429,32.57142857,22.28571429
584,584,R2222-HV-1326-840003-077,840003077,107,REGN2222-3mg/kg-IM,IM1B,4,14,14,Day-57,56,55.965,.,.,28.6,3.353406718,mg/L,,0,REGN2222,2,.,.,.,.,.,.,2,.,.,.,.,.,.,0,25,M,1,WHITE,1,HISPANIC-OR-LATINO,1,69.5,174.5,22.8,46.78571429,71.57142857,0.183571429,32.57142857,22.28571429
585,585,R2222-HV-1326-840003-077,840003077,107,REGN2222-3mg/kg-IM,IM1B,4,15,15,Day-85,84,83.969,.,.,13,2.564949357,mg/L,,0,REGN2222,2,.,.,.,.,.,.,2,.,.,.,.,.,.,0,25,M,1,WHITE,1,HISPANIC-OR-LATINO,1,69.5,174.5,22.8,46.78571429,71.57142857,0.183571429,32.57142857,22.28571429
586,586,R2222-HV-1326-840003-077,840003077,107,REGN2222-3mg/kg-IM,IM1B,4,16,16,Day-113,112,112,.,.,6.75,1.909542505,mg/L,,0,REGN2222,2,.,.,.,.,.,.,2,.,.,.,.,.,.,0,25,M,1,WHITE,1,HISPANIC-OR-LATINO,1,69.5,174.5,22.8,46.78571429,71.57142857,0.183571429,32.57142857,22.28571429
587,587,R2222-HV-1326-840003-077,840003077,107,REGN2222-3mg/kg-IM,IM1B,4,17,17,Day-141,140,140,.,.,3.37,1.214912744,mg/L,,0,REGN2222,2,.,.,.,.,.,.,2,.,.,.,.,.,.,0,25,M,1,WHITE,1,HISPANIC-OR-LATINO,1,69.5,174.5,22.8,46.78571429,71.57142857,0.183571429,32.57142857,22.28571429
588,588,R2222-HV-1326-840001-051,840001051,25,REGN2222-10mg/kg-IM,IM2A,5,.,.,.,.,0,.,.,.,.,.,.,1,REGN2222,1,5,10.2,mg/kg,510,mg,.,1,510,.,10.2,510,.,.,1,53,F,0,WHITE,1,NOT-HISPANIC-OR-LATINO,0,50,166.1,18.1,45,67.14285714,0.05,11.14285714,15.35714286
589,589,R2222-HV-1326-840001-051,840001051,25,REGN2222-10mg/kg-IM,IM2A,5,4,4,Day-2,1,0.99861,.,.,13.7,2.617395833,mg/L,,0,REGN2222,2,.,.,.,.,.,.,1,.,.,.,.,.,.,0,53,F,0,WHITE,1,NOT-HISPANIC-OR-LATINO,0,50,166.1,18.1,45,67.14285714,0.05,11.14285714,15.35714286
590,590,R2222-HV-1326-840001-051,840001051,25,REGN2222-10mg/kg-IM,IM2A,5,5,5,Day-3,2,2.0062,.,.,28.2,3.339321978,mg/L,,0,REGN2222,2,.,.,.,.,.,.,1,.,.,.,.,.,.,0,53,F,0,WHITE,1,NOT-HISPANIC-OR-LATINO,0,50,166.1,18.1,45,67.14285714,0.05,11.14285714,15.35714286
591,591,R2222-HV-1326-840001-051,840001051,25,REGN2222-10mg/kg-IM,IM2A,5,6,6,Day-8,7,6.966,.,.,70.6,4.257030144,mg/L,,0,REGN2222,2,.,.,.,.,.,.,1,.,.,.,.,.,.,0,53,F,0,WHITE,1,NOT-HISPANIC-OR-LATINO,0,50,166.1,18.1,45,67.14285714,0.05,11.14285714,15.35714286
592,592,R2222-HV-1326-840001-051,840001051,25,REGN2222-10mg/kg-IM,IM2A,5,7,7,Day-15,14,13.971,.,.,67.8,4.216562195,mg/L,,0,REGN2222,2,.,.,.,.,.,.,1,.,.,.,.,.,.,0,53,F,0,WHITE,1,NOT-HISPANIC-OR-LATINO,0,50,166.1,18.1,45,67.14285714,0.05,11.14285714,15.35714286
593,593,R2222-HV-1326-840001-051,840001051,25,REGN2222-10mg/kg-IM,IM2A,5,9,9,Day-29,28,28.994,.,.,41.7,3.730501129,mg/L,,0,REGN2222,2,.,.,.,.,.,.,1,.,.,.,.,.,.,0,53,F,0,WHITE,1,NOT-HISPANIC-OR-LATINO,0,50,166.1,18.1,45,67.14285714,0.05,11.14285714,15.35714286
594,594,R2222-HV-1326-840001-051,840001051,25,REGN2222-10mg/kg-IM,IM2A,5,.,.,.,.,29,.,.,.,.,.,.,1,REGN2222,1,5,9.9,mg/kg,495,mg,.,2,495,.,9.9,495,.,.,1,53,F,0,WHITE,1,NOT-HISPANIC-OR-LATINO,0,50,166.1,18.1,45,67.14285714,0.05,11.14285714,15.35714286
595,595,R2222-HV-1326-840001-051,840001051,25,REGN2222-10mg/kg-IM,IM2A,5,10,10,Day-30,29,29.999,.,.,56,4.025351691,mg/L,,0,REGN2222,2,.,.,.,.,.,.,2,.,.,.,.,.,.,0,53,F,0,WHITE,1,NOT-HISPANIC-OR-LATINO,0,50,166.1,18.1,45,67.14285714,0.05,11.14285714,15.35714286
596,596,R2222-HV-1326-840001-051,840001051,25,REGN2222-10mg/kg-IM,IM2A,5,11,11,Day-31,30,31.006,.,.,75.4,4.322807275,mg/L,,0,REGN2222,2,.,.,.,.,.,.,2,.,.,.,.,.,.,0,53,F,0,WHITE,1,NOT-HISPANIC-OR-LATINO,0,50,166.1,18.1,45,67.14285714,0.05,11.14285714,15.35714286
597,597,R2222-HV-1326-840001-051,840001051,25,REGN2222-10mg/kg-IM,IM2A,5,12,12,Day-36,35,35.974,.,.,88.3,4.480740108,mg/L,,0,REGN2222,2,.,.,.,.,.,.,2,.,.,.,.,.,.,0,53,F,0,WHITE,1,NOT-HISPANIC-OR-LATINO,0,50,166.1,18.1,45,67.14285714,0.05,11.14285714,15.35714286
598,598,R2222-HV-1326-840001-051,840001051,25,REGN2222-10mg/kg-IM,IM2A,5,13,13,Day-43,42,41.965,.,.,89.7,4.496470769,mg/L,,0,REGN2222,2,.,.,.,.,.,.,2,.,.,.,.,.,.,0,53,F,0,WHITE,1,NOT-HISPANIC-OR-LATINO,0,50,166.1,18.1,45,67.14285714,0.05,11.14285714,15.35714286
599,599,R2222-HV-1326-840001-051,840001051,25,REGN2222-10mg/kg-IM,IM2A,5,14,14,Day-57,56,55.969,.,.,64.4,4.165113633,mg/L,,0,REGN2222,2,.,.,.,.,.,.,2,.,.,.,.,.,.,0,53,F,0,WHITE,1,NOT-HISPANIC-OR-LATINO,0,50,166.1,18.1,45,67.14285714,0.05,11.14285714,15.35714286
600,600,R2222-HV-1326-840001-051,840001051,25,REGN2222-10mg/kg-IM,IM2A,5,15,15,Day-85,84,83.965,.,.,32.7,3.487375078,mg/L,,0,REGN2222,2,.,.,.,.,.,.,2,.,.,.,.,.,.,0,53,F,0,WHITE,1,NOT-HISPANIC-OR-LATINO,0,50,166.1,18.1,45,67.14285714,0.05,11.14285714,15.35714286
601,601,R2222-HV-1326-840001-051,840001051,25,REGN2222-10mg/kg-IM,IM2A,5,16,16,Day-113,112,111.99,.,.,21.5,3.068052935,mg/L,,0,REGN2222,2,.,.,.,.,.,.,2,.,.,.,.,.,.,0,53,F,0,WHITE,1,NOT-HISPANIC-OR-LATINO,0,50,166.1,18.1,45,67.14285714,0.05,11.14285714,15.35714286
602,602,R2222-HV-1326-840001-051,840001051,25,REGN2222-10mg/kg-IM,IM2A,5,17,17,Day-141,140,139.99,.,.,10,2.302585093,mg/L,,0,REGN2222,2,.,.,.,.,.,.,2,.,.,.,.,.,.,0,53,F,0,WHITE,1,NOT-HISPANIC-OR-LATINO,0,50,166.1,18.1,45,67.14285714,0.05,11.14285714,15.35714286
603,603,R2222-HV-1326-840001-052,840001052,26,REGN2222-10mg/kg-IM,IM2A,5,.,.,.,.,0,.,.,.,.,.,.,1,REGN2222,1,5,7.2115,mg/kg,600,mg,.,1,600,.,7.2115,600,.,.,1,36,M,1,BLACK,2,NOT-HISPANIC-OR-LATINO,0,83.2,173.8,27.5,37.73333333,105.9333333,0.092,22.06666667,22.8
604,604,R2222-HV-1326-840001-052,840001052,26,REGN2222-10mg/kg-IM,IM2A,5,4,4,Day-2,1,0.99931,.,.,42.9,3.758871826,mg/L,,0,REGN2222,2,.,.,.,.,.,.,1,.,.,.,.,.,.,0,36,M,1,BLACK,2,NOT-HISPANIC-OR-LATINO,0,83.2,173.8,27.5,37.73333333,105.9333333,0.092,22.06666667,22.8
605,605,R2222-HV-1326-840001-052,840001052,26,REGN2222-10mg/kg-IM,IM2A,5,5,5,Day-3,2,2.0035,.,.,65.8,4.186619838,mg/L,,0,REGN2222,2,.,.,.,.,.,.,1,.,.,.,.,.,.,0,36,M,1,BLACK,2,NOT-HISPANIC-OR-LATINO,0,83.2,173.8,27.5,37.73333333,105.9333333,0.092,22.06666667,22.8
606,606,R2222-HV-1326-840001-052,840001052,26,REGN2222-10mg/kg-IM,IM2A,5,6,6,Day-8,7,6.9667,.,.,78.3,4.360547603,mg/L,,0,REGN2222,2,.,.,.,.,.,.,1,.,.,.,.,.,.,0,36,M,1,BLACK,2,NOT-HISPANIC-OR-LATINO,0,83.2,173.8,27.5,37.73333333,105.9333333,0.092,22.06666667,22.8
607,607,R2222-HV-1326-840001-052,840001052,26,REGN2222-10mg/kg-IM,IM2A,5,7,7,Day-15,14,13.965,.,.,52,3.951243719,mg/L,,0,REGN2222,2,.,.,.,.,.,.,1,.,.,.,.,.,.,0,36,M,1,BLACK,2,NOT-HISPANIC-OR-LATINO,0,83.2,173.8,27.5,37.73333333,105.9333333,0.092,22.06666667,22.8
608,608,R2222-HV-1326-840001-052,840001052,26,REGN2222-10mg/kg-IM,IM2A,5,9,9,Day-29,28,27.993,.,.,19.6,2.975529566,mg/L,,0,REGN2222,2,.,.,.,.,.,.,1,.,.,.,.,.,.,0,36,M,1,BLACK,2,NOT-HISPANIC-OR-LATINO,0,83.2,173.8,27.5,37.73333333,105.9333333,0.092,22.06666667,22.8
609,609,R2222-HV-1326-840001-052,840001052,26,REGN2222-10mg/kg-IM,IM2A,5,.,.,.,.,28,.,.,.,.,.,.,1,REGN2222,1,5,7.2115,mg/kg,600,mg,.,2,600,.,7.2115,600,.,.,1,36,M,1,BLACK,2,NOT-HISPANIC-OR-LATINO,0,83.2,173.8,27.5,37.73333333,105.9333333,0.092,22.06666667,22.8
610,610,R2222-HV-1326-840001-052,840001052,26,REGN2222-10mg/kg-IM,IM2A,5,10,10,Day-30,29,28.999,.,.,58.4,4.06731589,mg/L,,0,REGN2222,2,.,.,.,.,.,.,2,.,.,.,.,.,.,0,36,M,1,BLACK,2,NOT-HISPANIC-OR-LATINO,0,83.2,173.8,27.5,37.73333333,105.9333333,0.092,22.06666667,22.8
611,611,R2222-HV-1326-840001-052,840001052,26,REGN2222-10mg/kg-IM,IM2A,5,11,11,Day-31,30,30.002,.,.,74.4,4.309455942,mg/L,,0,REGN2222,2,.,.,.,.,.,.,2,.,.,.,.,.,.,0,36,M,1,BLACK,2,NOT-HISPANIC-OR-LATINO,0,83.2,173.8,27.5,37.73333333,105.9333333,0.092,22.06666667,22.8
612,612,R2222-HV-1326-840001-052,840001052,26,REGN2222-10mg/kg-IM,IM2A,5,12,12,Day-36,35,34.958,.,.,77.3,4.347693956,mg/L,,0,REGN2222,2,.,.,.,.,.,.,2,.,.,.,.,.,.,0,36,M,1,BLACK,2,NOT-HISPANIC-OR-LATINO,0,83.2,173.8,27.5,37.73333333,105.9333333,0.092,22.06666667,22.8
613,613,R2222-HV-1326-840001-052,840001052,26,REGN2222-10mg/kg-IM,IM2A,5,13,13,Day-43,42,41.949,.,.,52.6,3.96271612,mg/L,,0,REGN2222,2,.,.,.,.,.,.,2,.,.,.,.,.,.,0,36,M,1,BLACK,2,NOT-HISPANIC-OR-LATINO,0,83.2,173.8,27.5,37.73333333,105.9333333,0.092,22.06666667,22.8
614,614,R2222-HV-1326-840001-052,840001052,26,REGN2222-10mg/kg-IM,IM2A,5,14,14,Day-57,56,55.954,.,.,27,3.295836866,mg/L,,0,REGN2222,2,.,.,.,.,.,.,2,.,.,.,.,.,.,0,36,M,1,BLACK,2,NOT-HISPANIC-OR-LATINO,0,83.2,173.8,27.5,37.73333333,105.9333333,0.092,22.06666667,22.8
615,615,R2222-HV-1326-840001-052,840001052,26,REGN2222-10mg/kg-IM,IM2A,5,15,15,Day-85,84,83.997,.,.,4.68,1.54329811,mg/L,,0,REGN2222,2,.,.,.,.,.,.,2,.,.,.,.,.,.,0,36,M,1,BLACK,2,NOT-HISPANIC-OR-LATINO,0,83.2,173.8,27.5,37.73333333,105.9333333,0.092,22.06666667,22.8
616,616,R2222-HV-1326-840001-052,840001052,26,REGN2222-10mg/kg-IM,IM2A,5,16,16,Day-113,112,112,.,.,2.93,1.075002423,mg/L,,0,REGN2222,2,.,.,.,.,.,.,2,.,.,.,.,.,.,0,36,M,1,BLACK,2,NOT-HISPANIC-OR-LATINO,0,83.2,173.8,27.5,37.73333333,105.9333333,0.092,22.06666667,22.8
617,617,R2222-HV-1326-840001-052,840001052,26,REGN2222-10mg/kg-IM,IM2A,5,17,17,Day-141,140,140.07,.,.,1.51,0.412109651,mg/L,,0,REGN2222,2,.,.,.,.,.,.,2,.,.,.,.,.,.,0,36,M,1,BLACK,2,NOT-HISPANIC-OR-LATINO,0,83.2,173.8,27.5,37.73333333,105.9333333,0.092,22.06666667,22.8
618,618,R2222-HV-1326-840001-057,840001057,28,REGN2222-10mg/kg-IM,IM2A,5,.,.,.,.,0,.,.,.,.,.,.,1,REGN2222,1,5,7.7519,mg/kg,600,mg,.,1,600,.,7.7519,600,.,.,1,53,M,1,BLACK,2,NOT-HISPANIC-OR-LATINO,0,77.4,173.9,25.6,42.33333333,94,0.040666667,16.06666667,15.26666667
619,619,R2222-HV-1326-840001-057,840001057,28,REGN2222-10mg/kg-IM,IM2A,5,4,4,Day-2,1,0.99861,.,.,46.6,3.841600541,mg/L,,0,REGN2222,2,.,.,.,.,.,.,1,.,.,.,.,.,.,0,53,M,1,BLACK,2,NOT-HISPANIC-OR-LATINO,0,77.4,173.9,25.6,42.33333333,94,0.040666667,16.06666667,15.26666667
620,620,R2222-HV-1326-840001-057,840001057,28,REGN2222-10mg/kg-IM,IM2A,5,5,5,Day-3,2,2.0028,.,.,72.1,4.278054044,mg/L,,0,REGN2222,2,.,.,.,.,.,.,1,.,.,.,.,.,.,0,53,M,1,BLACK,2,NOT-HISPANIC-OR-LATINO,0,77.4,173.9,25.6,42.33333333,94,0.040666667,16.06666667,15.26666667
621,621,R2222-HV-1326-840001-057,840001057,28,REGN2222-10mg/kg-IM,IM2A,5,6,6,Day-8,7,6.9972,.,.,83.1,4.420044702,mg/L,,0,REGN2222,2,.,.,.,.,.,.,1,.,.,.,.,.,.,0,53,M,1,BLACK,2,NOT-HISPANIC-OR-LATINO,0,77.4,173.9,25.6,42.33333333,94,0.040666667,16.06666667,15.26666667
622,622,R2222-HV-1326-840001-057,840001057,28,REGN2222-10mg/kg-IM,IM2A,5,7,7,Day-15,14,13.992,.,.,70.5,4.25561271,mg/L,,0,REGN2222,2,.,.,.,.,.,.,1,.,.,.,.,.,.,0,53,M,1,BLACK,2,NOT-HISPANIC-OR-LATINO,0,77.4,173.9,25.6,42.33333333,94,0.040666667,16.06666667,15.26666667
623,623,R2222-HV-1326-840001-057,840001057,28,REGN2222-10mg/kg-IM,IM2A,5,9,9,Day-29,28,27.993,.,.,51.9,3.94931879,mg/L,,0,REGN2222,2,.,.,.,.,.,.,1,.,.,.,.,.,.,0,53,M,1,BLACK,2,NOT-HISPANIC-OR-LATINO,0,77.4,173.9,25.6,42.33333333,94,0.040666667,16.06666667,15.26666667
624,624,R2222-HV-1326-840001-057,840001057,28,REGN2222-10mg/kg-IM,IM2A,5,.,.,.,.,28,.,.,.,.,.,.,1,REGN2222,1,5,7.7519,mg/kg,600,mg,.,2,600,.,7.7519,600,.,.,1,53,M,1,BLACK,2,NOT-HISPANIC-OR-LATINO,0,77.4,173.9,25.6,42.33333333,94,0.040666667,16.06666667,15.26666667
625,625,R2222-HV-1326-840001-057,840001057,28,REGN2222-10mg/kg-IM,IM2A,5,10,10,Day-30,29,28.999,.,.,96.1,4.565389316,mg/L,,0,REGN2222,2,.,.,.,.,.,.,2,.,.,.,.,.,.,0,53,M,1,BLACK,2,NOT-HISPANIC-OR-LATINO,0,77.4,173.9,25.6,42.33333333,94,0.040666667,16.06666667,15.26666667
626,626,R2222-HV-1326-840001-057,840001057,28,REGN2222-10mg/kg-IM,IM2A,5,11,11,Day-31,30,30.006,.,.,99.9,4.604169686,mg/L,,0,REGN2222,2,.,.,.,.,.,.,2,.,.,.,.,.,.,0,53,M,1,BLACK,2,NOT-HISPANIC-OR-LATINO,0,77.4,173.9,25.6,42.33333333,94,0.040666667,16.06666667,15.26666667
627,627,R2222-HV-1326-840001-057,840001057,28,REGN2222-10mg/kg-IM,IM2A,5,12,12,Day-36,35,35.001,.,.,119,4.779123493,mg/L,,0,REGN2222,2,.,.,.,.,.,.,2,.,.,.,.,.,.,0,53,M,1,BLACK,2,NOT-HISPANIC-OR-LATINO,0,77.4,173.9,25.6,42.33333333,94,0.040666667,16.06666667,15.26666667
628,628,R2222-HV-1326-840001-057,840001057,28,REGN2222-10mg/kg-IM,IM2A,5,13,13,Day-43,42,41.999,.,.,99.2,4.597138014,mg/L,,0,REGN2222,2,.,.,.,.,.,.,2,.,.,.,.,.,.,0,53,M,1,BLACK,2,NOT-HISPANIC-OR-LATINO,0,77.4,173.9,25.6,42.33333333,94,0.040666667,16.06666667,15.26666667
629,629,R2222-HV-1326-840001-057,840001057,28,REGN2222-10mg/kg-IM,IM2A,5,14,14,Day-57,56,55.995,.,.,83.7,4.427238977,mg/L,,0,REGN2222,2,.,.,.,.,.,.,2,.,.,.,.,.,.,0,53,M,1,BLACK,2,NOT-HISPANIC-OR-LATINO,0,77.4,173.9,25.6,42.33333333,94,0.040666667,16.06666667,15.26666667
630,630,R2222-HV-1326-840001-057,840001057,28,REGN2222-10mg/kg-IM,IM2A,5,15,15,Day-85,84,83.983,.,.,42.4,3.747148362,mg/L,,0,REGN2222,2,.,.,.,.,.,.,2,.,.,.,.,.,.,0,53,M,1,BLACK,2,NOT-HISPANIC-OR-LATINO,0,77.4,173.9,25.6,42.33333333,94,0.040666667,16.06666667,15.26666667
631,631,R2222-HV-1326-840001-057,840001057,28,REGN2222-10mg/kg-IM,IM2A,5,16,16,Day-113,112,112,.,.,26.7,3.284663565,mg/L,,0,REGN2222,2,.,.,.,.,.,.,2,.,.,.,.,.,.,0,53,M,1,BLACK,2,NOT-HISPANIC-OR-LATINO,0,77.4,173.9,25.6,42.33333333,94,0.040666667,16.06666667,15.26666667
632,632,R2222-HV-1326-840001-057,840001057,28,REGN2222-10mg/kg-IM,IM2A,5,17,17,Day-141,140,141.02,.,.,19.2,2.954910279,mg/L,,0,REGN2222,2,.,.,.,.,.,.,2,.,.,.,.,.,.,0,53,M,1,BLACK,2,NOT-HISPANIC-OR-LATINO,0,77.4,173.9,25.6,42.33333333,94,0.040666667,16.06666667,15.26666667
633,633,R2222-HV-1326-840001-062,840001062,29,REGN2222-10mg/kg-IM,IM2A,5,.,.,.,.,0,.,.,.,.,.,.,1,REGN2222,1,5,9.4192,mg/kg,600,mg,.,1,600,.,9.4192,600,.,.,1,40,F,0,WHITE,1,NOT-HISPANIC-OR-LATINO,0,63.7,168,22.6,45.14285714,58.14285714,0.066428571,11.07142857,16.57142857
634,634,R2222-HV-1326-840001-062,840001062,29,REGN2222-10mg/kg-IM,IM2A,5,4,4,Day-2,1,1.0014,.,.,23.6,3.161246712,mg/L,,0,REGN2222,2,.,.,.,.,.,.,1,.,.,.,.,.,.,0,40,F,0,WHITE,1,NOT-HISPANIC-OR-LATINO,0,63.7,168,22.6,45.14285714,58.14285714,0.066428571,11.07142857,16.57142857
635,635,R2222-HV-1326-840001-062,840001062,29,REGN2222-10mg/kg-IM,IM2A,5,5,5,Day-3,2,2.0049,.,.,35.4,3.56671182,mg/L,,0,REGN2222,2,.,.,.,.,.,.,1,.,.,.,.,.,.,0,40,F,0,WHITE,1,NOT-HISPANIC-OR-LATINO,0,63.7,168,22.6,45.14285714,58.14285714,0.066428571,11.07142857,16.57142857
636,636,R2222-HV-1326-840001-062,840001062,29,REGN2222-10mg/kg-IM,IM2A,5,6,6,Day-8,7,7.009,.,.,53.3,3.975936331,mg/L,,0,REGN2222,2,.,.,.,.,.,.,1,.,.,.,.,.,.,0,40,F,0,WHITE,1,NOT-HISPANIC-OR-LATINO,0,63.7,168,22.6,45.14285714,58.14285714,0.066428571,11.07142857,16.57142857
637,637,R2222-HV-1326-840001-062,840001062,29,REGN2222-10mg/kg-IM,IM2A,5,7,7,Day-15,14,14.024,.,.,43.6,3.77505715,mg/L,,0,REGN2222,2,.,.,.,.,.,.,1,.,.,.,.,.,.,0,40,F,0,WHITE,1,NOT-HISPANIC-OR-LATINO,0,63.7,168,22.6,45.14285714,58.14285714,0.066428571,11.07142857,16.57142857
638,638,R2222-HV-1326-840001-062,840001062,29,REGN2222-10mg/kg-IM,IM2A,5,9,9,Day-29,28,27.993,.,.,38.5,3.650658241,mg/L,,0,REGN2222,2,.,.,.,.,.,.,1,.,.,.,.,.,.,0,40,F,0,WHITE,1,NOT-HISPANIC-OR-LATINO,0,63.7,168,22.6,45.14285714,58.14285714,0.066428571,11.07142857,16.57142857
639,639,R2222-HV-1326-840001-062,840001062,29,REGN2222-10mg/kg-IM,IM2A,5,.,.,.,.,28,.,.,.,.,.,.,1,REGN2222,1,5,9.4192,mg/kg,600,mg,.,2,600,.,9.4192,600,.,.,1,40,F,0,WHITE,1,NOT-HISPANIC-OR-LATINO,0,63.7,168,22.6,45.14285714,58.14285714,0.066428571,11.07142857,16.57142857
640,640,R2222-HV-1326-840001-062,840001062,29,REGN2222-10mg/kg-IM,IM2A,5,10,10,Day-30,29,28.999,.,.,53.9,3.987130478,mg/L,,0,REGN2222,2,.,.,.,.,.,.,2,.,.,.,.,.,.,0,40,F,0,WHITE,1,NOT-HISPANIC-OR-LATINO,0,63.7,168,22.6,45.14285714,58.14285714,0.066428571,11.07142857,16.57142857
641,641,R2222-HV-1326-840001-062,840001062,29,REGN2222-10mg/kg-IM,IM2A,5,11,11,Day-31,30,30.003,.,.,73.4,4.295923936,mg/L,,0,REGN2222,2,.,.,.,.,.,.,2,.,.,.,.,.,.,0,40,F,0,WHITE,1,NOT-HISPANIC-OR-LATINO,0,63.7,168,22.6,45.14285714,58.14285714,0.066428571,11.07142857,16.57142857
642,642,R2222-HV-1326-840001-062,840001062,29,REGN2222-10mg/kg-IM,IM2A,5,12,12,Day-36,35,35.007,.,.,80.3,4.385769621,mg/L,,0,REGN2222,2,.,.,.,.,.,.,2,.,.,.,.,.,.,0,40,F,0,WHITE,1,NOT-HISPANIC-OR-LATINO,0,63.7,168,22.6,45.14285714,58.14285714,0.066428571,11.07142857,16.57142857
643,643,R2222-HV-1326-840001-062,840001062,29,REGN2222-10mg/kg-IM,IM2A,5,13,13,Day-43,42,42.014,.,.,74.7,4.313480092,mg/L,,0,REGN2222,2,.,.,.,.,.,.,2,.,.,.,.,.,.,0,40,F,0,WHITE,1,NOT-HISPANIC-OR-LATINO,0,63.7,168,22.6,45.14285714,58.14285714,0.066428571,11.07142857,16.57142857
644,644,R2222-HV-1326-840001-062,840001062,29,REGN2222-10mg/kg-IM,IM2A,5,14,14,Day-57,56,56.048,.,.,57.9,4.058717385,mg/L,,0,REGN2222,2,.,.,.,.,.,.,2,.,.,.,.,.,.,0,40,F,0,WHITE,1,NOT-HISPANIC-OR-LATINO,0,63.7,168,22.6,45.14285714,58.14285714,0.066428571,11.07142857,16.57142857
645,645,R2222-HV-1326-840001-062,840001062,29,REGN2222-10mg/kg-IM,IM2A,5,15,15,Day-85,84,84.031,.,.,28.5,3.349904087,mg/L,,0,REGN2222,2,.,.,.,.,.,.,2,.,.,.,.,.,.,0,40,F,0,WHITE,1,NOT-HISPANIC-OR-LATINO,0,63.7,168,22.6,45.14285714,58.14285714,0.066428571,11.07142857,16.57142857
646,646,R2222-HV-1326-840001-062,840001062,29,REGN2222-10mg/kg-IM,IM2A,5,16,16,Day-113,112,112.01,.,.,17.6,2.867898902,mg/L,,0,REGN2222,2,.,.,.,.,.,.,2,.,.,.,.,.,.,0,40,F,0,WHITE,1,NOT-HISPANIC-OR-LATINO,0,63.7,168,22.6,45.14285714,58.14285714,0.066428571,11.07142857,16.57142857
647,647,R2222-HV-1326-840001-062,840001062,29,REGN2222-10mg/kg-IM,IM2A,5,17,17,Day-141,140,140.02,.,.,11.5,2.442347035,mg/L,,0,REGN2222,2,.,.,.,.,.,.,2,.,.,.,.,.,.,0,40,F,0,WHITE,1,NOT-HISPANIC-OR-LATINO,0,63.7,168,22.6,45.14285714,58.14285714,0.066428571,11.07142857,16.57142857
648,648,R2222-HV-1326-840001-063,840001063,30,REGN2222-10mg/kg-IM,IM2A,5,.,.,.,.,0,.,.,.,.,.,.,1,REGN2222,1,5,7.6336,mg/kg,600,mg,.,1,600,.,7.6336,600,.,.,1,59,F,0,WHITE,1,NOT-HISPANIC-OR-LATINO,0,78.6,176,25.4,42.93333333,79.33333333,0.165714286,11,16.26666667
649,649,R2222-HV-1326-840001-063,840001063,30,REGN2222-10mg/kg-IM,IM2A,5,4,4,Day-2,1,0.99861,.,.,13,2.564949357,mg/L,,0,REGN2222,2,.,.,.,.,.,.,1,.,.,.,.,.,.,0,59,F,0,WHITE,1,NOT-HISPANIC-OR-LATINO,0,78.6,176,25.4,42.93333333,79.33333333,0.165714286,11,16.26666667
650,650,R2222-HV-1326-840001-063,840001063,30,REGN2222-10mg/kg-IM,IM2A,5,5,5,Day-3,2,2.0062,.,.,31.5,3.449987546,mg/L,,0,REGN2222,2,.,.,.,.,.,.,1,.,.,.,.,.,.,0,59,F,0,WHITE,1,NOT-HISPANIC-OR-LATINO,0,78.6,176,25.4,42.93333333,79.33333333,0.165714286,11,16.26666667
651,651,R2222-HV-1326-840001-063,840001063,30,REGN2222-10mg/kg-IM,IM2A,5,6,6,Day-8,7,7.0264,.,.,39.7,3.681351188,mg/L,,0,REGN2222,2,.,.,.,.,.,.,1,.,.,.,.,.,.,0,59,F,0,WHITE,1,NOT-HISPANIC-OR-LATINO,0,78.6,176,25.4,42.93333333,79.33333333,0.165714286,11,16.26666667
652,652,R2222-HV-1326-840001-063,840001063,30,REGN2222-10mg/kg-IM,IM2A,5,7,7,Day-15,14,14.019,.,.,31.5,3.449987546,mg/L,,0,REGN2222,2,.,.,.,.,.,.,1,.,.,.,.,.,.,0,59,F,0,WHITE,1,NOT-HISPANIC-OR-LATINO,0,78.6,176,25.4,42.93333333,79.33333333,0.165714286,11,16.26666667
653,653,R2222-HV-1326-840001-063,840001063,30,REGN2222-10mg/kg-IM,IM2A,5,9,9,Day-29,28,27.997,.,.,22.4,3.109060959,mg/L,,0,REGN2222,2,.,.,.,.,.,.,1,.,.,.,.,.,.,0,59,F,0,WHITE,1,NOT-HISPANIC-OR-LATINO,0,78.6,176,25.4,42.93333333,79.33333333,0.165714286,11,16.26666667
654,654,R2222-HV-1326-840001-063,840001063,30,REGN2222-10mg/kg-IM,IM2A,5,.,.,.,.,28,.,.,.,.,.,.,1,REGN2222,1,5,7.6336,mg/kg,600,mg,.,2,600,.,7.6336,600,.,.,1,59,F,0,WHITE,1,NOT-HISPANIC-OR-LATINO,0,78.6,176,25.4,42.93333333,79.33333333,0.165714286,11,16.26666667
655,655,R2222-HV-1326-840001-063,840001063,30,REGN2222-10mg/kg-IM,IM2A,5,10,10,Day-30,29,29.003,.,.,37.2,3.616308761,mg/L,,0,REGN2222,2,.,.,.,.,.,.,2,.,.,.,.,.,.,0,59,F,0,WHITE,1,NOT-HISPANIC-OR-LATINO,0,78.6,176,25.4,42.93333333,79.33333333,0.165714286,11,16.26666667
656,656,R2222-HV-1326-840001-063,840001063,30,REGN2222-10mg/kg-IM,IM2A,5,11,11,Day-31,30,30.004,.,.,51.7,3.945457782,mg/L,,0,REGN2222,2,.,.,.,.,.,.,2,.,.,.,.,.,.,0,59,F,0,WHITE,1,NOT-HISPANIC-OR-LATINO,0,78.6,176,25.4,42.93333333,79.33333333,0.165714286,11,16.26666667
657,657,R2222-HV-1326-840001-063,840001063,30,REGN2222-10mg/kg-IM,IM2A,5,12,12,Day-36,35,35.026,.,.,60,4.094344562,mg/L,,0,REGN2222,2,.,.,.,.,.,.,2,.,.,.,.,.,.,0,59,F,0,WHITE,1,NOT-HISPANIC-OR-LATINO,0,78.6,176,25.4,42.93333333,79.33333333,0.165714286,11,16.26666667
658,658,R2222-HV-1326-840001-063,840001063,30,REGN2222-10mg/kg-IM,IM2A,5,13,13,Day-43,42,42.018,.,.,59.1,4.079230924,mg/L,,0,REGN2222,2,.,.,.,.,.,.,2,.,.,.,.,.,.,0,59,F,0,WHITE,1,NOT-HISPANIC-OR-LATINO,0,78.6,176,25.4,42.93333333,79.33333333,0.165714286,11,16.26666667
659,659,R2222-HV-1326-840001-063,840001063,30,REGN2222-10mg/kg-IM,IM2A,5,14,14,Day-57,56,55.882,.,.,22.5,3.113515309,mg/L,,0,REGN2222,2,.,.,.,.,.,.,2,.,.,.,.,.,.,0,59,F,0,WHITE,1,NOT-HISPANIC-OR-LATINO,0,78.6,176,25.4,42.93333333,79.33333333,0.165714286,11,16.26666667
660,660,R2222-HV-1326-840001-063,840001063,30,REGN2222-10mg/kg-IM,IM2A,5,15,15,Day-85,84,84.018,.,.,19.7,2.980618636,mg/L,,0,REGN2222,2,.,.,.,.,.,.,2,.,.,.,.,.,.,0,59,F,0,WHITE,1,NOT-HISPANIC-OR-LATINO,0,78.6,176,25.4,42.93333333,79.33333333,0.165714286,11,16.26666667
661,661,R2222-HV-1326-840001-063,840001063,30,REGN2222-10mg/kg-IM,IM2A,5,16,16,Day-113,112,112.01,.,.,7.38,1.998773639,mg/L,,0,REGN2222,2,.,.,.,.,.,.,2,.,.,.,.,.,.,0,59,F,0,WHITE,1,NOT-HISPANIC-OR-LATINO,0,78.6,176,25.4,42.93333333,79.33333333,0.165714286,11,16.26666667
662,662,R2222-HV-1326-840001-063,840001063,30,REGN2222-10mg/kg-IM,IM2A,5,17,17,Day-141,140,140.02,.,.,4.93,1.595338988,mg/L,,0,REGN2222,2,.,.,.,.,.,.,2,.,.,.,.,.,.,0,59,F,0,WHITE,1,NOT-HISPANIC-OR-LATINO,0,78.6,176,25.4,42.93333333,79.33333333,0.165714286,11,16.26666667
663,663,R2222-HV-1326-840001-069,840001069,31,REGN2222-10mg/kg-IM,IM2A,5,.,.,.,.,0,.,.,.,.,.,.,1,REGN2222,1,5,9.9174,mg/kg,600,mg,.,1,600,.,9.9174,600,.,.,1,58,F,0,WHITE,1,NOT-HISPANIC-OR-LATINO,0,60.5,161.3,23.3,45.21428571,79.14285714,0.146428571,13.28571429,20.28571429
664,664,R2222-HV-1326-840001-069,840001069,31,REGN2222-10mg/kg-IM,IM2A,5,4,4,Day-2,1,1.0007,.,.,17.9,2.884800713,mg/L,,0,REGN2222,2,.,.,.,.,.,.,1,.,.,.,.,.,.,0,58,F,0,WHITE,1,NOT-HISPANIC-OR-LATINO,0,60.5,161.3,23.3,45.21428571,79.14285714,0.146428571,13.28571429,20.28571429
665,665,R2222-HV-1326-840001-069,840001069,31,REGN2222-10mg/kg-IM,IM2A,5,5,5,Day-3,2,2.0035,.,.,29.2,3.374168709,mg/L,,0,REGN2222,2,.,.,.,.,.,.,1,.,.,.,.,.,.,0,58,F,0,WHITE,1,NOT-HISPANIC-OR-LATINO,0,60.5,161.3,23.3,45.21428571,79.14285714,0.146428571,13.28571429,20.28571429
666,666,R2222-HV-1326-840001-069,840001069,31,REGN2222-10mg/kg-IM,IM2A,5,6,6,Day-8,7,7.0056,.,.,71.8,4.273884476,mg/L,,0,REGN2222,2,.,.,.,.,.,.,1,.,.,.,.,.,.,0,58,F,0,WHITE,1,NOT-HISPANIC-OR-LATINO,0,60.5,161.3,23.3,45.21428571,79.14285714,0.146428571,13.28571429,20.28571429
667,667,R2222-HV-1326-840001-069,840001069,31,REGN2222-10mg/kg-IM,IM2A,5,7,7,Day-15,14,14.022,.,.,70.8,4.259859001,mg/L,,0,REGN2222,2,.,.,.,.,.,.,1,.,.,.,.,.,.,0,58,F,0,WHITE,1,NOT-HISPANIC-OR-LATINO,0,60.5,161.3,23.3,45.21428571,79.14285714,0.146428571,13.28571429,20.28571429
668,668,R2222-HV-1326-840001-069,840001069,31,REGN2222-10mg/kg-IM,IM2A,5,9,9,Day-29,28,27.993,.,.,68.3,4.223909767,mg/L,,0,REGN2222,2,.,.,.,.,.,.,1,.,.,.,.,.,.,0,58,F,0,WHITE,1,NOT-HISPANIC-OR-LATINO,0,60.5,161.3,23.3,45.21428571,79.14285714,0.146428571,13.28571429,20.28571429
669,669,R2222-HV-1326-840001-069,840001069,31,REGN2222-10mg/kg-IM,IM2A,5,.,.,.,.,28,.,.,.,.,.,.,1,REGN2222,1,5,9.9174,mg/kg,600,mg,.,2,600,.,9.9174,600,.,.,1,58,F,0,WHITE,1,NOT-HISPANIC-OR-LATINO,0,60.5,161.3,23.3,45.21428571,79.14285714,0.146428571,13.28571429,20.28571429
670,670,R2222-HV-1326-840001-069,840001069,31,REGN2222-10mg/kg-IM,IM2A,5,10,10,Day-30,29,29,.,.,78.9,4.368181228,mg/L,,0,REGN2222,2,.,.,.,.,.,.,2,.,.,.,.,.,.,0,58,F,0,WHITE,1,NOT-HISPANIC-OR-LATINO,0,60.5,161.3,23.3,45.21428571,79.14285714,0.146428571,13.28571429,20.28571429
671,671,R2222-HV-1326-840001-069,840001069,31,REGN2222-10mg/kg-IM,IM2A,5,11,11,Day-31,30,30.006,.,.,103,4.634728988,mg/L,,0,REGN2222,2,.,.,.,.,.,.,2,.,.,.,.,.,.,0,58,F,0,WHITE,1,NOT-HISPANIC-OR-LATINO,0,60.5,161.3,23.3,45.21428571,79.14285714,0.146428571,13.28571429,20.28571429
672,672,R2222-HV-1326-840001-069,840001069,31,REGN2222-10mg/kg-IM,IM2A,5,12,12,Day-36,35,35.006,.,.,129,4.859812404,mg/L,,0,REGN2222,2,.,.,.,.,.,.,2,.,.,.,.,.,.,0,58,F,0,WHITE,1,NOT-HISPANIC-OR-LATINO,0,60.5,161.3,23.3,45.21428571,79.14285714,0.146428571,13.28571429,20.28571429
673,673,R2222-HV-1326-840001-069,840001069,31,REGN2222-10mg/kg-IM,IM2A,5,13,13,Day-43,42,42.008,.,.,135,4.905274778,mg/L,,0,REGN2222,2,.,.,.,.,.,.,2,.,.,.,.,.,.,0,58,F,0,WHITE,1,NOT-HISPANIC-OR-LATINO,0,60.5,161.3,23.3,45.21428571,79.14285714,0.146428571,13.28571429,20.28571429
674,674,R2222-HV-1326-840001-069,840001069,31,REGN2222-10mg/kg-IM,IM2A,5,14,14,Day-57,56,56.003,.,.,112,4.718498871,mg/L,,0,REGN2222,2,.,.,.,.,.,.,2,.,.,.,.,.,.,0,58,F,0,WHITE,1,NOT-HISPANIC-OR-LATINO,0,60.5,161.3,23.3,45.21428571,79.14285714,0.146428571,13.28571429,20.28571429
675,675,R2222-HV-1326-840001-069,840001069,31,REGN2222-10mg/kg-IM,IM2A,5,15,15,Day-85,84,84.004,.,.,77.1,4.345103281,mg/L,,0,REGN2222,2,.,.,.,.,.,.,2,.,.,.,.,.,.,0,58,F,0,WHITE,1,NOT-HISPANIC-OR-LATINO,0,60.5,161.3,23.3,45.21428571,79.14285714,0.146428571,13.28571429,20.28571429
676,676,R2222-HV-1326-840001-069,840001069,31,REGN2222-10mg/kg-IM,IM2A,5,16,16,Day-113,112,112.02,.,.,51,3.931825633,mg/L,,0,REGN2222,2,.,.,.,.,.,.,2,.,.,.,.,.,.,0,58,F,0,WHITE,1,NOT-HISPANIC-OR-LATINO,0,60.5,161.3,23.3,45.21428571,79.14285714,0.146428571,13.28571429,20.28571429
677,677,R2222-HV-1326-840001-069,840001069,31,REGN2222-10mg/kg-IM,IM2A,5,17,17,Day-141,140,140.02,.,.,40.4,3.698829785,mg/L,,0,REGN2222,2,.,.,.,.,.,.,2,.,.,.,.,.,.,0,58,F,0,WHITE,1,NOT-HISPANIC-OR-LATINO,0,60.5,161.3,23.3,45.21428571,79.14285714,0.146428571,13.28571429,20.28571429
678,678,R2222-HV-1326-840001-070,840001070,32,REGN2222-10mg/kg-IM,IM2A,5,.,.,.,.,0,.,.,.,.,.,.,1,REGN2222,1,5,6.263,mg/kg,600,mg,.,1,600,.,6.263,600,.,.,1,45,M,1,WHITE,1,NOT-HISPANIC-OR-LATINO,0,95.8,176.8,30.6,42.35714286,90.57142857,0.267142857,21.07142857,18.42857143
679,679,R2222-HV-1326-840001-070,840001070,32,REGN2222-10mg/kg-IM,IM2A,5,4,4,Day-2,1,0.99861,.,.,17.9,2.884800713,mg/L,,0,REGN2222,2,.,.,.,.,.,.,1,.,.,.,.,.,.,0,45,M,1,WHITE,1,NOT-HISPANIC-OR-LATINO,0,95.8,176.8,30.6,42.35714286,90.57142857,0.267142857,21.07142857,18.42857143
680,680,R2222-HV-1326-840001-070,840001070,32,REGN2222-10mg/kg-IM,IM2A,5,5,5,Day-3,2,2.0021,.,.,34,3.526360525,mg/L,,0,REGN2222,2,.,.,.,.,.,.,1,.,.,.,.,.,.,0,45,M,1,WHITE,1,NOT-HISPANIC-OR-LATINO,0,95.8,176.8,30.6,42.35714286,90.57142857,0.267142857,21.07142857,18.42857143
681,681,R2222-HV-1326-840001-070,840001070,32,REGN2222-10mg/kg-IM,IM2A,5,6,6,Day-8,7,6.9778,.,.,54.2,3.992680908,mg/L,,0,REGN2222,2,.,.,.,.,.,.,1,.,.,.,.,.,.,0,45,M,1,WHITE,1,NOT-HISPANIC-OR-LATINO,0,95.8,176.8,30.6,42.35714286,90.57142857,0.267142857,21.07142857,18.42857143
682,682,R2222-HV-1326-840001-070,840001070,32,REGN2222-10mg/kg-IM,IM2A,5,7,7,Day-15,14,13.968,.,.,52.8,3.966511191,mg/L,,0,REGN2222,2,.,.,.,.,.,.,1,.,.,.,.,.,.,0,45,M,1,WHITE,1,NOT-HISPANIC-OR-LATINO,0,95.8,176.8,30.6,42.35714286,90.57142857,0.267142857,21.07142857,18.42857143
683,683,R2222-HV-1326-840001-070,840001070,32,REGN2222-10mg/kg-IM,IM2A,5,9,9,Day-29,28,27.951,.,.,39.4,3.673765816,mg/L,,0,REGN2222,2,.,.,.,.,.,.,1,.,.,.,.,.,.,0,45,M,1,WHITE,1,NOT-HISPANIC-OR-LATINO,0,95.8,176.8,30.6,42.35714286,90.57142857,0.267142857,21.07142857,18.42857143
684,684,R2222-HV-1326-840001-070,840001070,32,REGN2222-10mg/kg-IM,IM2A,5,.,.,.,.,27.958,.,.,.,.,.,.,1,REGN2222,1,5,6.263,mg/kg,600,mg,.,2,600,.,6.263,600,.,.,1,45,M,1,WHITE,1,NOT-HISPANIC-OR-LATINO,0,95.8,176.8,30.6,42.35714286,90.57142857,0.267142857,21.07142857,18.42857143
685,685,R2222-HV-1326-840001-070,840001070,32,REGN2222-10mg/kg-IM,IM2A,5,10,10,Day-30,29,28.957,.,.,53.2,3.974058396,mg/L,,0,REGN2222,2,.,.,.,.,.,.,2,.,.,.,.,.,.,0,45,M,1,WHITE,1,NOT-HISPANIC-OR-LATINO,0,95.8,176.8,30.6,42.35714286,90.57142857,0.267142857,21.07142857,18.42857143
686,686,R2222-HV-1326-840001-070,840001070,32,REGN2222-10mg/kg-IM,IM2A,5,11,11,Day-31,30,29.96,.,.,58.2,4.063885355,mg/L,,0,REGN2222,2,.,.,.,.,.,.,2,.,.,.,.,.,.,0,45,M,1,WHITE,1,NOT-HISPANIC-OR-LATINO,0,95.8,176.8,30.6,42.35714286,90.57142857,0.267142857,21.07142857,18.42857143
687,687,R2222-HV-1326-840001-070,840001070,32,REGN2222-10mg/kg-IM,IM2A,5,12,12,Day-36,35,34.979,.,.,86.8,4.463606622,mg/L,,0,REGN2222,2,.,.,.,.,.,.,2,.,.,.,.,.,.,0,45,M,1,WHITE,1,NOT-HISPANIC-OR-LATINO,0,95.8,176.8,30.6,42.35714286,90.57142857,0.267142857,21.07142857,18.42857143
688,688,R2222-HV-1326-840001-070,840001070,32,REGN2222-10mg/kg-IM,IM2A,5,13,13,Day-43,42,41.97,.,.,83.5,4.424846632,mg/L,,0,REGN2222,2,.,.,.,.,.,.,2,.,.,.,.,.,.,0,45,M,1,WHITE,1,NOT-HISPANIC-OR-LATINO,0,95.8,176.8,30.6,42.35714286,90.57142857,0.267142857,21.07142857,18.42857143
689,689,R2222-HV-1326-840001-070,840001070,32,REGN2222-10mg/kg-IM,IM2A,5,14,14,Day-57,56,55.983,.,.,32,3.465735903,mg/L,,0,REGN2222,2,.,.,.,.,.,.,2,.,.,.,.,.,.,0,45,M,1,WHITE,1,NOT-HISPANIC-OR-LATINO,0,95.8,176.8,30.6,42.35714286,90.57142857,0.267142857,21.07142857,18.42857143
690,690,R2222-HV-1326-840001-070,840001070,32,REGN2222-10mg/kg-IM,IM2A,5,15,15,Day-85,84,83.979,.,.,26.2,3.265759411,mg/L,,0,REGN2222,2,.,.,.,.,.,.,2,.,.,.,.,.,.,0,45,M,1,WHITE,1,NOT-HISPANIC-OR-LATINO,0,95.8,176.8,30.6,42.35714286,90.57142857,0.267142857,21.07142857,18.42857143
691,691,R2222-HV-1326-840001-070,840001070,32,REGN2222-10mg/kg-IM,IM2A,5,16,16,Day-113,112,111.98,.,.,12.8,2.549445171,mg/L,,0,REGN2222,2,.,.,.,.,.,.,2,.,.,.,.,.,.,0,45,M,1,WHITE,1,NOT-HISPANIC-OR-LATINO,0,95.8,176.8,30.6,42.35714286,90.57142857,0.267142857,21.07142857,18.42857143
692,692,R2222-HV-1326-840001-070,840001070,32,REGN2222-10mg/kg-IM,IM2A,5,17,17,Day-141,140,139.97,.,.,7.72,2.043814364,mg/L,,0,REGN2222,2,.,.,.,.,.,.,2,.,.,.,.,.,.,0,45,M,1,WHITE,1,NOT-HISPANIC-OR-LATINO,0,95.8,176.8,30.6,42.35714286,90.57142857,0.267142857,21.07142857,18.42857143
693,693,R2222-HV-1326-840001-071,840001071,33,REGN2222-10mg/kg-IM,IM2A,5,.,.,.,.,0,.,.,.,.,.,.,1,REGN2222,1,5,9.1603,mg/kg,600,mg,.,1,600,.,9.1603,600,.,.,1,24,F,0,WHITE,1,NOT-HISPANIC-OR-LATINO,0,65.5,155.6,27.1,44.64285714,67.14285714,0.066428571,18,17.78571429
694,694,R2222-HV-1326-840001-071,840001071,33,REGN2222-10mg/kg-IM,IM2A,5,4,4,Day-2,1,1,.,.,14,2.63905733,mg/L,,0,REGN2222,2,.,.,.,.,.,.,1,.,.,.,.,.,.,0,24,F,0,WHITE,1,NOT-HISPANIC-OR-LATINO,0,65.5,155.6,27.1,44.64285714,67.14285714,0.066428571,18,17.78571429
695,695,R2222-HV-1326-840001-071,840001071,33,REGN2222-10mg/kg-IM,IM2A,5,5,5,Day-3,2,2.0035,.,.,28.2,3.339321978,mg/L,,0,REGN2222,2,.,.,.,.,.,.,1,.,.,.,.,.,.,0,24,F,0,WHITE,1,NOT-HISPANIC-OR-LATINO,0,65.5,155.6,27.1,44.64285714,67.14285714,0.066428571,18,17.78571429
696,696,R2222-HV-1326-840001-071,840001071,33,REGN2222-10mg/kg-IM,IM2A,5,6,6,Day-8,7,7.0174,.,.,63.8,4.15575319,mg/L,,0,REGN2222,2,.,.,.,.,.,.,1,.,.,.,.,.,.,0,24,F,0,WHITE,1,NOT-HISPANIC-OR-LATINO,0,65.5,155.6,27.1,44.64285714,67.14285714,0.066428571,18,17.78571429
697,697,R2222-HV-1326-840001-071,840001071,33,REGN2222-10mg/kg-IM,IM2A,5,7,7,Day-15,14,14.026,.,.,48.4,3.879499814,mg/L,,0,REGN2222,2,.,.,.,.,.,.,1,.,.,.,.,.,.,0,24,F,0,WHITE,1,NOT-HISPANIC-OR-LATINO,0,65.5,155.6,27.1,44.64285714,67.14285714,0.066428571,18,17.78571429
698,698,R2222-HV-1326-840001-071,840001071,33,REGN2222-10mg/kg-IM,IM2A,5,9,9,Day-29,28,27.993,.,.,36.8,3.605497845,mg/L,,0,REGN2222,2,.,.,.,.,.,.,1,.,.,.,.,.,.,0,24,F,0,WHITE,1,NOT-HISPANIC-OR-LATINO,0,65.5,155.6,27.1,44.64285714,67.14285714,0.066428571,18,17.78571429
699,699,R2222-HV-1326-840001-071,840001071,33,REGN2222-10mg/kg-IM,IM2A,5,.,.,.,.,28,.,.,.,.,.,.,1,REGN2222,1,5,9.1603,mg/kg,600,mg,.,2,600,.,9.1603,600,.,.,1,24,F,0,WHITE,1,NOT-HISPANIC-OR-LATINO,0,65.5,155.6,27.1,44.64285714,67.14285714,0.066428571,18,17.78571429
700,700,R2222-HV-1326-840001-071,840001071,33,REGN2222-10mg/kg-IM,IM2A,5,10,10,Day-30,29,28.999,.,.,56.7,4.037774211,mg/L,,0,REGN2222,2,.,.,.,.,.,.,2,.,.,.,.,.,.,0,24,F,0,WHITE,1,NOT-HISPANIC-OR-LATINO,0,65.5,155.6,27.1,44.64285714,67.14285714,0.066428571,18,17.78571429
701,701,R2222-HV-1326-840001-071,840001071,33,REGN2222-10mg/kg-IM,IM2A,5,11,11,Day-31,30,30.001,.,.,72,4.276666119,mg/L,,0,REGN2222,2,.,.,.,.,.,.,2,.,.,.,.,.,.,0,24,F,0,WHITE,1,NOT-HISPANIC-OR-LATINO,0,65.5,155.6,27.1,44.64285714,67.14285714,0.066428571,18,17.78571429
702,702,R2222-HV-1326-840001-071,840001071,33,REGN2222-10mg/kg-IM,IM2A,5,12,12,Day-36,35,35.007,.,.,79.9,4.380775853,mg/L,,0,REGN2222,2,.,.,.,.,.,.,2,.,.,.,.,.,.,0,24,F,0,WHITE,1,NOT-HISPANIC-OR-LATINO,0,65.5,155.6,27.1,44.64285714,67.14285714,0.066428571,18,17.78571429
703,703,R2222-HV-1326-840001-071,840001071,33,REGN2222-10mg/kg-IM,IM2A,5,13,13,Day-43,42,42.002,.,.,80.6,4.38949865,mg/L,,0,REGN2222,2,.,.,.,.,.,.,2,.,.,.,.,.,.,0,24,F,0,WHITE,1,NOT-HISPANIC-OR-LATINO,0,65.5,155.6,27.1,44.64285714,67.14285714,0.066428571,18,17.78571429
704,704,R2222-HV-1326-840001-071,840001071,33,REGN2222-10mg/kg-IM,IM2A,5,14,14,Day-57,56,58.054,.,.,43.7,3.777348102,mg/L,,0,REGN2222,2,.,.,.,.,.,.,2,.,.,.,.,.,.,0,24,F,0,WHITE,1,NOT-HISPANIC-OR-LATINO,0,65.5,155.6,27.1,44.64285714,67.14285714,0.066428571,18,17.78571429
705,705,R2222-HV-1326-840001-071,840001071,33,REGN2222-10mg/kg-IM,IM2A,5,15,15,Day-85,84,84.008,.,.,19.9,2.990719732,mg/L,,0,REGN2222,2,.,.,.,.,.,.,2,.,.,.,.,.,.,0,24,F,0,WHITE,1,NOT-HISPANIC-OR-LATINO,0,65.5,155.6,27.1,44.64285714,67.14285714,0.066428571,18,17.78571429
706,706,R2222-HV-1326-840001-071,840001071,33,REGN2222-10mg/kg-IM,IM2A,5,16,16,Day-113,112,112.03,.,.,9,2.197224577,mg/L,,0,REGN2222,2,.,.,.,.,.,.,2,.,.,.,.,.,.,0,24,F,0,WHITE,1,NOT-HISPANIC-OR-LATINO,0,65.5,155.6,27.1,44.64285714,67.14285714,0.066428571,18,17.78571429
707,707,R2222-HV-1326-840001-071,840001071,33,REGN2222-10mg/kg-IM,IM2A,5,17,17,Day-141,140,140.98,.,.,4.24,1.444563269,mg/L,,0,REGN2222,2,.,.,.,.,.,.,2,.,.,.,.,.,.,0,24,F,0,WHITE,1,NOT-HISPANIC-OR-LATINO,0,65.5,155.6,27.1,44.64285714,67.14285714,0.066428571,18,17.78571429
708,708,R2222-HV-1326-840001-073,840001073,34,REGN2222-10mg/kg-IM,IM2A,5,.,.,.,.,0,.,.,.,.,.,.,1,REGN2222,1,5,6.25,mg/kg,600,mg,.,1,600,.,6.25,600,.,.,1,44,M,1,WHITE,1,NOT-HISPANIC-OR-LATINO,0,96,172.6,32.2,44.5,87.64285714,0.090714286,39.5,35.64285714
709,709,R2222-HV-1326-840001-073,840001073,34,REGN2222-10mg/kg-IM,IM2A,5,4,4,Day-2,1,1.0028,.,.,25.1,3.222867846,mg/L,,0,REGN2222,2,.,.,.,.,.,.,1,.,.,.,.,.,.,0,44,M,1,WHITE,1,NOT-HISPANIC-OR-LATINO,0,96,172.6,32.2,44.5,87.64285714,0.090714286,39.5,35.64285714
710,710,R2222-HV-1326-840001-073,840001073,34,REGN2222-10mg/kg-IM,IM2A,5,5,5,Day-3,2,2.0042,.,.,41.1,3.716008122,mg/L,,0,REGN2222,2,.,.,.,.,.,.,1,.,.,.,.,.,.,0,44,M,1,WHITE,1,NOT-HISPANIC-OR-LATINO,0,96,172.6,32.2,44.5,87.64285714,0.090714286,39.5,35.64285714
711,711,R2222-HV-1326-840001-073,840001073,34,REGN2222-10mg/kg-IM,IM2A,5,6,6,Day-8,7,7.0924,.,.,59.6,4.087655574,mg/L,,0,REGN2222,2,.,.,.,.,.,.,1,.,.,.,.,.,.,0,44,M,1,WHITE,1,NOT-HISPANIC-OR-LATINO,0,96,172.6,32.2,44.5,87.64285714,0.090714286,39.5,35.64285714
712,712,R2222-HV-1326-840001-073,840001073,34,REGN2222-10mg/kg-IM,IM2A,5,7,7,Day-15,14,14.016,.,.,54,3.988984047,mg/L,,0,REGN2222,2,.,.,.,.,.,.,1,.,.,.,.,.,.,0,44,M,1,WHITE,1,NOT-HISPANIC-OR-LATINO,0,96,172.6,32.2,44.5,87.64285714,0.090714286,39.5,35.64285714
713,713,R2222-HV-1326-840001-073,840001073,34,REGN2222-10mg/kg-IM,IM2A,5,9,9,Day-29,28,27.993,.,.,41.6,3.728100167,mg/L,,0,REGN2222,2,.,.,.,.,.,.,1,.,.,.,.,.,.,0,44,M,1,WHITE,1,NOT-HISPANIC-OR-LATINO,0,96,172.6,32.2,44.5,87.64285714,0.090714286,39.5,35.64285714
714,714,R2222-HV-1326-840001-073,840001073,34,REGN2222-10mg/kg-IM,IM2A,5,.,.,.,.,28,.,.,.,.,.,.,1,REGN2222,1,5,6.25,mg/kg,600,mg,.,2,600,.,6.25,600,.,.,1,44,M,1,WHITE,1,NOT-HISPANIC-OR-LATINO,0,96,172.6,32.2,44.5,87.64285714,0.090714286,39.5,35.64285714
715,715,R2222-HV-1326-840001-073,840001073,34,REGN2222-10mg/kg-IM,IM2A,5,10,10,Day-30,29,29.007,.,.,60.8,4.107589789,mg/L,,0,REGN2222,2,.,.,.,.,.,.,2,.,.,.,.,.,.,0,44,M,1,WHITE,1,NOT-HISPANIC-OR-LATINO,0,96,172.6,32.2,44.5,87.64285714,0.090714286,39.5,35.64285714
716,716,R2222-HV-1326-840001-073,840001073,34,REGN2222-10mg/kg-IM,IM2A,5,11,11,Day-31,30,30.003,.,.,69,4.234106505,mg/L,,0,REGN2222,2,.,.,.,.,.,.,2,.,.,.,.,.,.,0,44,M,1,WHITE,1,NOT-HISPANIC-OR-LATINO,0,96,172.6,32.2,44.5,87.64285714,0.090714286,39.5,35.64285714
717,717,R2222-HV-1326-840001-073,840001073,34,REGN2222-10mg/kg-IM,IM2A,5,12,12,Day-36,35,34.987,.,.,112,4.718498871,mg/L,,0,REGN2222,2,.,.,.,.,.,.,2,.,.,.,.,.,.,0,44,M,1,WHITE,1,NOT-HISPANIC-OR-LATINO,0,96,172.6,32.2,44.5,87.64285714,0.090714286,39.5,35.64285714
718,718,R2222-HV-1326-840001-073,840001073,34,REGN2222-10mg/kg-IM,IM2A,5,13,13,Day-43,42,41.965,.,.,91.9,4.520701029,mg/L,,0,REGN2222,2,.,.,.,.,.,.,2,.,.,.,.,.,.,0,44,M,1,WHITE,1,NOT-HISPANIC-OR-LATINO,0,96,172.6,32.2,44.5,87.64285714,0.090714286,39.5,35.64285714
719,719,R2222-HV-1326-840001-073,840001073,34,REGN2222-10mg/kg-IM,IM2A,5,14,14,Day-57,56,55.04,.,.,51.7,3.945457782,mg/L,,0,REGN2222,2,.,.,.,.,.,.,2,.,.,.,.,.,.,0,44,M,1,WHITE,1,NOT-HISPANIC-OR-LATINO,0,96,172.6,32.2,44.5,87.64285714,0.090714286,39.5,35.64285714
720,720,R2222-HV-1326-840001-073,840001073,34,REGN2222-10mg/kg-IM,IM2A,5,15,15,Day-85,84,84.078,.,.,26.7,3.284663565,mg/L,,0,REGN2222,2,.,.,.,.,.,.,2,.,.,.,.,.,.,0,44,M,1,WHITE,1,NOT-HISPANIC-OR-LATINO,0,96,172.6,32.2,44.5,87.64285714,0.090714286,39.5,35.64285714
721,721,R2222-HV-1326-840001-073,840001073,34,REGN2222-10mg/kg-IM,IM2A,5,16,16,Day-113,112,112,.,.,15.7,2.753660712,mg/L,,0,REGN2222,2,.,.,.,.,.,.,2,.,.,.,.,.,.,0,44,M,1,WHITE,1,NOT-HISPANIC-OR-LATINO,0,96,172.6,32.2,44.5,87.64285714,0.090714286,39.5,35.64285714
722,722,R2222-HV-1326-840001-073,840001073,34,REGN2222-10mg/kg-IM,IM2A,5,17,17,Day-141,140,140.03,.,.,8.63,2.155244505,mg/L,,0,REGN2222,2,.,.,.,.,.,.,2,.,.,.,.,.,.,0,44,M,1,WHITE,1,NOT-HISPANIC-OR-LATINO,0,96,172.6,32.2,44.5,87.64285714,0.090714286,39.5,35.64285714
723,723,R2222-HV-1326-840001-077,840001077,36,REGN2222-10mg/kg-IM,IM2A,5,.,.,.,.,0,.,.,.,.,.,.,1,REGN2222,1,5,7.2464,mg/kg,600,mg,.,1,600,.,7.2464,600,.,.,1,60,M,1,WHITE,1,NOT-HISPANIC-OR-LATINO,0,82.8,167.3,29.6,41.5625,85,0.076428571,24.1875,21.0625
724,724,R2222-HV-1326-840001-077,840001077,36,REGN2222-10mg/kg-IM,IM2A,5,4,4,Day-2,1,0.99931,.,.,33.8,3.520460802,mg/L,,0,REGN2222,2,.,.,.,.,.,.,1,.,.,.,.,.,.,0,60,M,1,WHITE,1,NOT-HISPANIC-OR-LATINO,0,82.8,167.3,29.6,41.5625,85,0.076428571,24.1875,21.0625
725,725,R2222-HV-1326-840001-077,840001077,36,REGN2222-10mg/kg-IM,IM2A,5,5,5,Day-3,2,2.0028,.,.,55.9,4.02356438,mg/L,,0,REGN2222,2,.,.,.,.,.,.,1,.,.,.,.,.,.,0,60,M,1,WHITE,1,NOT-HISPANIC-OR-LATINO,0,82.8,167.3,29.6,41.5625,85,0.076428571,24.1875,21.0625
726,726,R2222-HV-1326-840001-077,840001077,36,REGN2222-10mg/kg-IM,IM2A,5,6,6,Day-8,7,6.9958,.,.,81.2,4.396915247,mg/L,,0,REGN2222,2,.,.,.,.,.,.,1,.,.,.,.,.,.,0,60,M,1,WHITE,1,NOT-HISPANIC-OR-LATINO,0,82.8,167.3,29.6,41.5625,85,0.076428571,24.1875,21.0625
727,727,R2222-HV-1326-840001-077,840001077,36,REGN2222-10mg/kg-IM,IM2A,5,7,7,Day-15,14,14.015,.,.,65.9,4.188138442,mg/L,,0,REGN2222,2,.,.,.,.,.,.,1,.,.,.,.,.,.,0,60,M,1,WHITE,1,NOT-HISPANIC-OR-LATINO,0,82.8,167.3,29.6,41.5625,85,0.076428571,24.1875,21.0625
728,728,R2222-HV-1326-840001-077,840001077,36,REGN2222-10mg/kg-IM,IM2A,5,9,9,Day-29,28,27.99,.,.,52.7,3.964615456,mg/L,,0,REGN2222,2,.,.,.,.,.,.,1,.,.,.,.,.,.,0,60,M,1,WHITE,1,NOT-HISPANIC-OR-LATINO,0,82.8,167.3,29.6,41.5625,85,0.076428571,24.1875,21.0625
729,729,R2222-HV-1326-840001-077,840001077,36,REGN2222-10mg/kg-IM,IM2A,5,.,.,.,.,27.997,.,.,.,.,.,.,1,REGN2222,1,5,7.2464,mg/kg,600,mg,.,2,600,.,7.2464,600,.,.,1,60,M,1,WHITE,1,NOT-HISPANIC-OR-LATINO,0,82.8,167.3,29.6,41.5625,85,0.076428571,24.1875,21.0625
730,730,R2222-HV-1326-840001-077,840001077,36,REGN2222-10mg/kg-IM,IM2A,5,10,10,Day-30,29,28.996,.,.,73.2,4.293195421,mg/L,,0,REGN2222,2,.,.,.,.,.,.,2,.,.,.,.,.,.,0,60,M,1,WHITE,1,NOT-HISPANIC-OR-LATINO,0,82.8,167.3,29.6,41.5625,85,0.076428571,24.1875,21.0625
731,731,R2222-HV-1326-840001-077,840001077,36,REGN2222-10mg/kg-IM,IM2A,5,11,11,Day-31,30,29.999,.,.,97.8,4.582924577,mg/L,,0,REGN2222,2,.,.,.,.,.,.,2,.,.,.,.,.,.,0,60,M,1,WHITE,1,NOT-HISPANIC-OR-LATINO,0,82.8,167.3,29.6,41.5625,85,0.076428571,24.1875,21.0625
732,732,R2222-HV-1326-840001-077,840001077,36,REGN2222-10mg/kg-IM,IM2A,5,12,12,Day-36,35,35.006,.,.,134,4.8978398,mg/L,,0,REGN2222,2,.,.,.,.,.,.,2,.,.,.,.,.,.,0,60,M,1,WHITE,1,NOT-HISPANIC-OR-LATINO,0,82.8,167.3,29.6,41.5625,85,0.076428571,24.1875,21.0625
733,733,R2222-HV-1326-840001-077,840001077,36,REGN2222-10mg/kg-IM,IM2A,5,13,13,Day-43,42,41.965,.,.,100,4.605170186,mg/L,,0,REGN2222,2,.,.,.,.,.,.,2,.,.,.,.,.,.,0,60,M,1,WHITE,1,NOT-HISPANIC-OR-LATINO,0,82.8,167.3,29.6,41.5625,85,0.076428571,24.1875,21.0625
734,734,R2222-HV-1326-840001-077,840001077,36,REGN2222-10mg/kg-IM,IM2A,5,14,14,Day-57,56,55.974,.,.,67.6,4.213607983,mg/L,,0,REGN2222,2,.,.,.,.,.,.,2,.,.,.,.,.,.,0,60,M,1,WHITE,1,NOT-HISPANIC-OR-LATINO,0,82.8,167.3,29.6,41.5625,85,0.076428571,24.1875,21.0625
735,735,R2222-HV-1326-840001-077,840001077,36,REGN2222-10mg/kg-IM,IM2A,5,15,15,Day-85,84,83.961,.,.,41.4,3.723280881,mg/L,,0,REGN2222,2,.,.,.,.,.,.,2,.,.,.,.,.,.,0,60,M,1,WHITE,1,NOT-HISPANIC-OR-LATINO,0,82.8,167.3,29.6,41.5625,85,0.076428571,24.1875,21.0625
736,736,R2222-HV-1326-840001-077,840001077,36,REGN2222-10mg/kg-IM,IM2A,5,16,16,Day-113,112,111.98,.,.,25.5,3.238678452,mg/L,,0,REGN2222,2,.,.,.,.,.,.,2,.,.,.,.,.,.,0,60,M,1,WHITE,1,NOT-HISPANIC-OR-LATINO,0,82.8,167.3,29.6,41.5625,85,0.076428571,24.1875,21.0625
737,737,R2222-HV-1326-840001-077,840001077,36,REGN2222-10mg/kg-IM,IM2A,5,17,17,Day-141,140,139.97,.,.,16.9,2.827313622,mg/L,,0,REGN2222,2,.,.,.,.,.,.,2,.,.,.,.,.,.,0,60,M,1,WHITE,1,NOT-HISPANIC-OR-LATINO,0,82.8,167.3,29.6,41.5625,85,0.076428571,24.1875,21.0625
738,738,R2222-HV-1326-840001-078,840001078,37,REGN2222-10mg/kg-IM,IM2A,5,.,.,.,.,0,.,.,.,.,.,.,1,REGN2222,1,5,7.8844,mg/kg,600,mg,.,1,600,.,7.8844,600,.,.,1,28,F,0,WHITE,1,NOT-HISPANIC-OR-LATINO,0,76.1,160.3,29.6,41.7,68.3,0.224,19.4,18.7
739,739,R2222-HV-1326-840001-078,840001078,37,REGN2222-10mg/kg-IM,IM2A,5,4,4,Day-2,1,1.0035,.,.,22.2,3.100092289,mg/L,,0,REGN2222,2,.,.,.,.,.,.,1,.,.,.,.,.,.,0,28,F,0,WHITE,1,NOT-HISPANIC-OR-LATINO,0,76.1,160.3,29.6,41.7,68.3,0.224,19.4,18.7
740,740,R2222-HV-1326-840001-078,840001078,37,REGN2222-10mg/kg-IM,IM2A,5,5,5,Day-3,2,2.0264,.,.,30.4,3.414442608,mg/L,,0,REGN2222,2,.,.,.,.,.,.,1,.,.,.,.,.,.,0,28,F,0,WHITE,1,NOT-HISPANIC-OR-LATINO,0,76.1,160.3,29.6,41.7,68.3,0.224,19.4,18.7
741,741,R2222-HV-1326-840001-078,840001078,37,REGN2222-10mg/kg-IM,IM2A,5,6,6,Day-8,7,7.0368,.,.,56.1,4.027135813,mg/L,,0,REGN2222,2,.,.,.,.,.,.,1,.,.,.,.,.,.,0,28,F,0,WHITE,1,NOT-HISPANIC-OR-LATINO,0,76.1,160.3,29.6,41.7,68.3,0.224,19.4,18.7
